<?xml version="1.0" encoding="UTF-8"?>
<!--Sample XML file generated by XMLSpy v2017 rel. 3 sp1 (http://www.altova.com)-->
<Bundle xmlns="http://hl7.org/fhir" xmlns:xsi="http://www.w3.org/2001/XMLSchema-instance" xsi:schemaLocation="http://hl7.org/fhir ../Schemas/bundle.xsd">
	<id value="dffd19d6-dc21-11e7-9296-cec278b6b50a"/>
	<meta>
		<profile value="https://fhir.nhs.uk/STU3/StructureDefinition/EMS-Bundle-1"/>
	</meta>
	<identifier>
		<system value="https://tools.ietf.org/html/rfc4122"/>
		<value value="dffd19d6-dc21-11e7-9296-cec278b6b50a"/>
	</identifier>
	<type value="message"/>
	<!--Entry for MessageHeader with id, timestamp, event type, source, responsible/publishing organization, communication-->
	<entry>
		<fullUrl value="urn:uuid:dffd14fe-dc21-11e7-9296-cec278b6b50a"/>
		<resource>
			<MessageHeader>
				<id value="dffd14fe-dc21-11e7-9296-cec278b6b50a"/>
				<meta>
					<profile value="https://fhir.nhs.uk/STU3/StructureDefinition/EMS-MessageHeader-1"/>
				</meta>
				<extension url="https://fhir.nhs.uk/STU3/StructureDefinition/Extension-EMS-MessageEventType-1">
					<valueCodeableConcept>
						<coding>
							<system value="https://fhir.nhs.uk/STU3/CodeSystem/EMS-MessageEventType-1"/>
							<code value="new"/>
							<display value="New event message"/>
						</coding>
					</valueCodeableConcept>
				</extension>
				<event>
					<system value="https://fhir.nhs.uk/STU3/CodeSystem/EMS-EventType-1"/>
					<code value="PDS006"/>
					<display value="PDS Birth Notification"/>
				</event>
				<timestamp value="2017-10-02T20:20:00+00:00"/>
				<source>
					<endpoint value="urn:nhs-uk:addressing:ods:X26"/>
				</source>
				<responsible>
					<reference value="urn:uuid:b834d806-c076-11e7-abc4-cec278b6b50a"/>
					<display value="NHS DIGITAL"/>
				</responsible>
				<focus>
					<reference value="urn:uuid:dffd142c-dc21-11e7-9296-cec278b6b50a"/>
				</focus>
			</MessageHeader>
		</resource>
	</entry>
	<!--Entry for responsible/publishing organization i.e. NHS Digital-->
	<entry>
		<fullUrl value="urn:uuid:b834d806-c076-11e7-abc4-cec278b6b50a"/>
		<resource>
			<Organization>
				<id value="b834d806-c076-11e7-abc4-cec278b6b50a"/>
				<meta>
					<profile value="https://fhir.hl7.org.uk/STU3/StructureDefinition/CareConnect-Organization-1"/>
				</meta>
				<identifier>
					<system value="https://fhir.nhs.uk/Id/ods-organization-code"/>
					<value value="X26"/>
				</identifier>
				<name value="NHS DIGITAL"/>
				<address>
					<line value="1 TREVELYAN SQUARE"/>
					<line value="BOAR LANE"/>
					<city value="LEEDS"/>
					<district value="WEST YORKSHIRE"/>
					<postalCode value="LS1 6AE"/>
				</address>
			</Organization>
		</resource>
	</entry>
	<!--Entry for service type within the Organization i.e. PDS-->
	<entry>
		<fullUrl value="urn:uuid:dffd2e1c-dc21-11e7-9296-cec278b6b50a"/>
		<resource>
			<HealthcareService>
				<id value="dffd2e1c-dc21-11e7-9296-cec278b6b50a"/>
				<meta>
					<profile value="https://fhir.nhs.uk/STU3/StructureDefinition/EMS-HealthcareService-1"/>
				</meta>
				<identifier>
					<system value="https://tools.ietf.org/html/rfc4122"/>
					<value value="dffd2e1c-dc21-11e7-9296-cec278b6b50a"/>
				</identifier>
				<providedBy>
					<reference value="urn:uuid:b834d806-c076-11e7-abc4-cec278b6b50a"/>
					<display value="NHS DIGITAL"/>
				</providedBy>
				<type>
					<coding>
						<system value="https://fhir.nhs.uk/STU3/CodeSystem/EMS-HealthcareServiceType-1"/>
						<code value="PDS"/>
						<display value="Personal Demographics Service"/>
					</coding>
				</type>
			</HealthcareService>
		</resource>
	</entry>
	<!--Entry for communication for the event message, with reference to subject and payload-->
	<entry>
		<fullUrl value="urn:uuid:dffd142c-dc21-11e7-9296-cec278b6b50a"/>
		<resource>
			<Communication>
				<id value="dffd142c-dc21-11e7-9296-cec278b6b50a"/>
				<meta>
					<profile value="https://fhir.nhs.uk/STU3/StructureDefinition/EMS-Communication-1"/>
				</meta>
				<identifier>
					<system value="https://tools.ietf.org/html/rfc4122"/>
					<value value="dffd142c-dc21-11e7-9296-cec278b6b50a"/>
				</identifier>
				<status value="completed"/>
				<subject>
					<reference value="urn:uuid:dffd3330-dc21-11e7-9296-cec278b6b50a"/>
					<display value="DAWKINS, Jack"/>
				</subject>
				<payload>
					<contentReference>
						<reference value="urn:uuid:dffd3330-dc21-11e7-9296-cec278b6b50a"/>
						<display value="DAWKINS, Jack"/>
					</contentReference>
				</payload>
			</Communication>
		</resource>
	</entry>
	<!--Entry for communication for the Patient as subject of Birth Notification.-->
	<entry>
		<fullUrl value="urn:uuid:dffd3330-dc21-11e7-9296-cec278b6b50a"/>
		<resource>
			<Patient>
				<id value="dffd3330-dc21-11e7-9296-cec278b6b50a"/>
				<meta>
					<profile value="https://fhir.nhs.uk/STU3/StructureDefinition/CareConnect-PDS-Baby-Patient-1"/>
				</meta>
				<extension url="https://fhir.hl7.org.uk/STU3/StructureDefinition/Extension-CareConnect-EthnicCategory-1">
					<valueCodeableConcept>
						<coding>
							<system value="https://fhir.hl7.org.uk/STU3/CareConnect-EthnicCategory-1"/>
							<code value="A"/>
							<display value="British, Mixed British"/>
						</coding>
					</valueCodeableConcept>
				</extension>
				<identifier>
					<extension url="https://fhir.hl7.org.uk/STU3/StructureDefinition/Extension-CareConnect-NHSNumberVerificationStatus-1">
						<valueCodeableConcept>
							<coding>
								<system value="https://fhir.hl7.org.uk/STU3/CareConnect-NHSNumberVerificationStatus-1"/>
								<code value="01"/>
								<display value="Number present and verified"/>
							</coding>
						</valueCodeableConcept>
					</extension>
					<system value="https://fhir.nhs.uk/Id/nhs-number"/>
					<value value="9912003888"/>
				</identifier>
				<name>
					<use value="usual"/>
					<family value="DAWKINS"/>
					<given value="Jack"/>
				</name>
				<gender value="male"/>
				<birthDate value="2017-10-02">
					<extension url="http://hl7.org/fhir/StructureDefinition/patient-birthTime">
						<valueDateTime value="2017-10-02T20:12:00+00:00"/>
					</extension>
				</birthDate>
				<address>
					<use value="home"/>
					<line value="4 Sandmoor Drive"/>
					<city value="LEEDS"/>
					<postalCode value="LS17 7DF"/>
				</address>
				<multipleBirthInteger value="1"/>
			</Patient>
		</resource>
	</entry>
	<!--Entry for the Partner CHO.-->
	<entry>
		<fullUrl value="urn:uuid:b27aea28-f478-11e7-8c3f-9a214cf093ae"/>
		<resource>
			<Organization>
				<id value="b27aea28-f478-11e7-8c3f-9a214cf093ae"/>
				<meta>
					<profile value="https://fhir.hl7.org.uk/STU3/StructureDefinition/CareConnect-Organization-1"/>
				</meta>
				<identifier>
					<system value="https://fhir.nhs.uk/Id/ods-organization-code"/>
					<value value="RY6"/>
				</identifier>
				<name value="LEEDS COMMUNITY HEALTHCARE NHS TRUST (RY6)"/>
			</Organization>
		</resource>
	</entry>
	<!--Entry for the Responsible CHO.-->
	<entry>
		<fullUrl value="urn:uuid:b27aee9c-f478-11e7-8c3f-9a214cf093ae"/>
		<resource>
			<Organization>
				<id value="b27aee9c-f478-11e7-8c3f-9a214cf093ae"/>
				<meta>
					<profile value="https://fhir.hl7.org.uk/STU3/StructureDefinition/CareConnect-Organization-1"/>
				</meta>
				<identifier>
					<system value="https://fhir.nhs.uk/Id/ods-organization-code"/>
					<value value="TAD"/>
				</identifier>
				<name value="BRADFORD DISTRICT CARE NHS FOUNDATION TRUST (TAD)"/>
			</Organization>
		</resource>
	</entry>
	<!--Entry for the Mother of Patient.-->
	<entry>
		<fullUrl value="urn:uuid:dffd136e-dc21-11e7-9296-cec278b6b50a"/>
		<resource>
			<Patient>
				<id value="dffd136e-dc21-11e7-9296-cec278b6b50a"/>
				<meta>
					<profile value="https://fhir.nhs.uk/STU3/StructureDefinition/CareConnect-PDS-Mother-Patient-1"/>
				</meta>
				<identifier>
					<extension url="https://fhir.hl7.org.uk/STU3/StructureDefinition/Extension-CareConnect-NHSNumberVerificationStatus-1">
						<valueCodeableConcept>
							<coding>
								<system value="https://fhir.hl7.org.uk/STU3/CareConnect-NHSNumberVerificationStatus-1"/>
								<code value="01"/>
								<display value="Number present and verified"/>
							</coding>
						</valueCodeableConcept>
					</extension>
					<system value="https://fhir.nhs.uk/Id/nhs-number"/>
					<value value="1112223330"/>
				</identifier>
				<name>
					<use value="usual"/>
					<family value="DAWKINS"/>
					<given value="Sally"/>
				</name>
				<gender value="female"/>
				<birthDate value="1987-10-02">
				</birthDate>
				<address>
					<use value="home"/>
					<line value="4 Sandmoor Drive"/>
					<city value="LEEDS"/>
					<postalCode value="LS17 7DF"/>
				</address>
				<generalPractitioner>
					<reference value="urn:uuid:dffd12a6-dc21-11e7-9296-cec278b6b50a"/>
					<display value="SHADWELL MEDICAL CENTRE"/>
				</generalPractitioner>
			</Patient>
		</resource>
	</entry>
	<!--Entry for GP for the Mother of Patient.-->
	<entry>
		<fullUrl value="urn:uuid:dffd12a6-dc21-11e7-9296-cec278b6b50a"/>
		<resource>
			<Organization>
				<id value="dffd12a6-dc21-11e7-9296-cec278b6b50a"/>
				<meta>
					<profile value="https://fhir.hl7.org.uk/STU3/StructureDefinition/CareConnect-Organization-1"/>
				</meta>
				<identifier>
					<system value="https://fhir.nhs.uk/Id/ods-site-code"/>
					<value value="B86056"/>
				</identifier>
				<type>
					<coding>
						<system value="http://snomed.info/sct"/>
						<code value="408443003"/>
						<display value="General medical practice (qualifier value)"/>
					</coding>
				</type>
				<name value="SHADWELL MEDICAL CENTRE"/>
				<address>
					<use value="work"/>
					<line value="137 SHADWELL LANE"/>
					<line value="LEEDS"/>
					<postalCode value="LS17 8AE"/>
				</address>
			</Organization>
		</resource>
	</entry>
	<!--Entry for birth weight observation.-->
	<entry>
		<fullUrl value="urn:uuid:dffd0ca2-dc21-11e7-9296-cec278b6b50a"/>
		<resource>
			<Observation>
				<id value="dffd0ca2-dc21-11e7-9296-cec278b6b50a"/>
				<meta>
					<profile value="https://fhir.nhs.uk/STU3/StructureDefinition/CareConnect-PDS-BirthWeight-Observation-1"/>
				</meta>
				<identifier>
					<system value="https://tools.ietf.org/html/rfc4122"/>
					<value value="dffd0ca2-dc21-11e7-9296-cec278b6b50a"/>
				</identifier>
				<status value="final"/>
				<code>
					<coding>
						<system value="http://snomed.info/sct"/>
						<code value="364589006"/>
						<display value="Birth weight (observable entity)"/>
					</coding>
				</code>
				<subject>
					<reference value="urn:uuid:dffd3330-dc21-11e7-9296-cec278b6b50a"/>
					<display value="DAWKINS, Jack"/>
				</subject>
				<valueQuantity>
					<value value="3175"/>
					<system value="http://unitsofmeasure.org"/>
					<code value="g"/>
				</valueQuantity>
			</Observation>
		</resource>
	</entry>
	<!--Entry for gestation age observation.-->
	<entry>
		<fullUrl value="urn:uuid:dffd0a54-dc21-11e7-9296-cec278b6b50a"/>
		<resource>
			<Observation>
				<id value="dffd0a54-dc21-11e7-9296-cec278b6b50a"/>
				<meta>
					<profile value="https://fhir.nhs.uk/STU3/StructureDefinition/CareConnect-PDS-GestationAge-Observation-1"/>
				</meta>
				<identifier>
					<system value="https://tools.ietf.org/html/rfc4122"/>
					<value value="dffd0a54-dc21-11e7-9296-cec278b6b50a"/>
				</identifier>
				<status value="final"/>
				<code>
					<coding>
						<system value="http://snomed.info/sct"/>
						<code value="226081000000107"/>
						<display value="Gestational age (observable entity)"/>
					</coding>
				</code>
				<subject>
					<reference value="urn:uuid:dffd3330-dc21-11e7-9296-cec278b6b50a"/>
					<display value="DAWKINS, Jack"/>
				</subject>
				<valueQuantity>
					<value value="39"/>
				</valueQuantity>
			</Observation>
		</resource>
	</entry>
	<!--Entry for number of births observation.-->
	<entry>
		<fullUrl value="urn:uuid:dffd0bda-dc21-11e7-9296-cec278b6b50a"/>
		<resource>
			<Observation>
				<id value="dffd0bda-dc21-11e7-9296-cec278b6b50a"/>
				<meta>
					<profile value="https://fhir.nhs.uk/STU3/StructureDefinition/CareConnect-PDS-GestationAge-Observation-1"/>
				</meta>
				<identifier>
					<system value="https://tools.ietf.org/html/rfc4122"/>
					<value value="dffd0bda-dc21-11e7-9296-cec278b6b50a"/>
				</identifier>
				<status value="final"/>
				<code>
					<coding>
						<system value="http://snomed.info/sct"/>
						<code value="440425000"/>
						<display value="Number of births at term (observable entity)"/>
					</coding>
				</code>
				<subject>
					<reference value="urn:uuid:dffd136e-dc21-11e7-9296-cec278b6b50a"/>
					<display value="DAWKINS, SALLY"/>
				</subject>
				<valueQuantity>
					<value value="1"/>
				</valueQuantity>
			</Observation>
		</resource>
	</entry>
	<!--Entry for still born observation.-->
	<entry>
		<fullUrl value="urn:uuid:dffd0b12-dc21-11e7-9296-cec278b6b50a"/>
		<resource>
			<Observation>
				<id value="dffd0b12-dc21-11e7-9296-cec278b6b50a"/>
				<meta>
					<profile value="https://fhir.nhs.uk/STU3/StructureDefinition/CareConnect-PDS-StillBornIndicator-Observation-1"/>
				</meta>
				<identifier>
					<system value="https://tools.ietf.org/html/rfc4122"/>
					<value value="dffd0b12-dc21-11e7-9296-cec278b6b50a"/>
				</identifier>
				<status value="final"/>
				<code>
					<coding>
						<system value="http://snomed.info/sct"/>
						<code value="163131000000108"/>
						<display value="Clinical observations and findings - care record element (record artifact)"/>
					</coding>
				</code>
				<subject>
					<reference value="urn:uuid:dffd3330-dc21-11e7-9296-cec278b6b50a"/>
					<display value="DAWKINS, Jack"/>
				</subject>
				<valueCodeableConcept>
					<coding>
						<system value="https://fhir.nhs.uk/STU3/CodeSystem/PDS-StillBornIndicator-1"/>
						<code value="1"/>
						<display value="Live"/>
					</coding>
				</valueCodeableConcept>
			</Observation>
		</resource>
	</entry>
	<!--Entry for suspected congenital abnormality observation.-->
	<entry>
		<fullUrl value="urn:uuid:dffd0982-dc21-11e7-9296-cec278b6b50a"/>
		<resource>
			<Observation>
				<id value="dffd0982-dc21-11e7-9296-cec278b6b50a"/>
				<meta>
					<profile value="https://fhir.nhs.uk/STU3/StructureDefinition/CareConnect-PDS-SuspectedCongenitalAbnormalityIndicator-Observation-1"/>
				</meta>
				<identifier>
					<system value="https://tools.ietf.org/html/rfc4122"/>
					<value value="dffd0982-dc21-11e7-9296-cec278b6b50a"/>
				</identifier>
				<status value="final"/>
				<code>
					<coding>
						<system value="http://snomed.info/sct"/>
						<code value="163131000000108"/>
						<display value="Clinical observations and findings - care record element (record artifact)"/>
					</coding>
				</code>
				<subject>
					<reference value="urn:uuid:dffd3330-dc21-11e7-9296-cec278b6b50a"/>
					<display value="DAWKINS, Jack"/>
				</subject>
				<valueCodeableConcept>
					<coding>
						<system value="https://fhir.nhs.uk/STU3/CodeSystem/PDS-SuspectedCongenitalAbnormalityIndicator-1"/>
						<code value="N"/>
						<display value="No"/>
					</coding>
				</valueCodeableConcept>
			</Observation>
		</resource>
	</entry>
	<!--Entry for Delivery Place.-->
	<entry>
		<fullUrl value="urn:uuid:dffcf456-dc21-11e7-9296-cec278b6b50a"/>
		<resource>
			<Organization>
				<id value="dffcf456-dc21-11e7-9296-cec278b6b50a"/>
				<meta>
					<profile value="https://fhir.nhs.uk/STU3/StructureDefinition/CareConnect-PDS-DeliveryPlace-Organization-1"/>
				</meta>
				<identifier>
					<system value="https://fhir.nhs.uk/Id/ods-site-code"/>
					<value value="RR830"/>
				</identifier>
				<type>
					<coding>
						<system value="https://fhir.nhs.uk/STU3/CodeSystem/PDS-DeliveryPlaceType-1"/>
						<code value="4"/>
						<display value="In NHS hospital - delivery facilities associated with consultant/GMP/midwife ward inclusive of any combination of two of the professionals mentioned"/>
					</coding>
				</type>
				<name value="NHS Trust Site CLARENDON WING, LEEDS GENERAL INFIRMARY (RR830)"/>
			</Organization>
		</resource>
	</entry>
	<!--Entry for notifying person.-->
	<entry>
		<fullUrl value="urn:uuid:dffcf6f4-dc21-11e7-9296-cec278b6b50a"/>
		<resource>
			<Practitioner>
				<id value="dffcf6f4-dc21-11e7-9296-cec278b6b50a"/>
				<meta>
					<profile value="https://fhir.hl7.org.uk/STU3/StructureDefinition/CareConnect-Practitioner-1"/>
				</meta>
				<identifier>
					<system value="https://tools.ietf.org/html/rfc4122"/>
					<value value="dffcf6f4-dc21-11e7-9296-cec278b6b50a"/>
				</identifier>
				<name>
					<use value="official"/>
					<family value="JONES"/>
					<given value="JANE"/>
				</name>
			</Practitioner>
		</resource>
	</entry>
	<!--Entry for Registering Authority-->
	<entry>
		<fullUrl value="urn:uuid:dffd0d6a-dc21-11e7-9296-cec278b6b50a"/>
		<resource>
			<Organization>
				<id value="dffd0d6a-dc21-11e7-9296-cec278b6b50a"/>
				<meta>
					<profile value="https://fhir.nhs.uk/STU3/StructureDefinition/CareConnect-PDS-RegisteringAuthority-Organization-1"/>
				</meta>
				<identifier>
					<system value="https://fhir.nhs.uk/Id/ods-organization-code"/>
					<value value="RR8"/>
				</identifier>
				<type>
					<coding>
						<system value="https://fhir.nhs.uk/STU3/CodeSystem/PDS-RegisteringAuthorityType-1"/>
						<code value="c"/>
						<display value="NHS Trust"/>
					</coding>
				</type>
				<name value="NHS Trust LEEDS TEACHING HOSPITALS NHS TRUST (RR8)"/>
			</Organization>
		</resource>
	</entry>
</Bundle>
