<PractitionerRole xmlns="http://hl7.org/fhir">
	<id value="1f4874aa-c184-46f4-bb81-89917ddb436b"/>
	<meta>
		<profile value="https://fhir.hl7.org.uk/STU3/StructureDefinition/CareConnect-RARecord-PractitionerRole-1"/>
	</meta>
	<contained>
		
			<Practitioner>
				<id value="6729a444-b20e-4083-9338-cf544b6afbc0"/>
				<meta>
					<!--Identifies the profile being used-->
					<profile value="https://fhir.hl7.org.uk/STU3/StructureDefinition/CareConnect-RARecord-Practitioner-1"/>
				</meta>
				<identifier>
					<system value="https://fhir.nhs.uk/Id/sds-user-id"/>
					<value value="e5a11456"/>
				</identifier>
				<name>
					<family value="Gulliver"/>
					<given value="Leticia"/>
				</name>
			</Practitioner>
	</contained>
	<contained>	
			<Organization>
				<id value="63bc67df-82df-4a79-87c6-33973e23a5f7"/>
				<meta>
					<profile value="https://fhir.hl7.org.uk/STU3/StructureDefinition/CareConnect-RARecord-Organization-1"/>
				</meta>
				<identifier>
					<system value="https://fhir.nhs.uk/Id/ods-organization-code"/>
					<value value="R4M8C"/>
				</identifier>
				<type>
					<coding>
						<system value="http://hl7.org/fhir/organization-type"/>
						<code value="prov"/>
						<display value="Healthcare Provider"/>
					</coding>
				</type>
				<name value="Hebburn Hospital"/>
			</Organization>
		
	</contained>
	<practitioner>
		<reference value="#6729a444-b20e-4083-9338-cf544b6afbc0"/>
	</practitioner>
	<organization>
		<reference value="#63bc67df-82df-4a79-87c6-33973e23a5f7"/>
	</organization>
	<code>
        <coding>
			<system value="https://fhir.hl7.org.uk/STU3/CodeSystem/CareConnect-SDSJobRoleName-1"/>
			<code value="R0260"/>
            <display value="General Medical Practitioner"/>
		</coding>
	</code>
</PractitionerRole>
