{
  "resourceType": "Condition",
  "id": "9cbd3dda-c51a-4e68-af70-f0de60cb8ba7",
  "meta": {
    "profile": [
      "https://fhir.nhs.uk/STU3/StructureDefinition/CareConnect-RARecord-Condition-1"
    ]
  },
  "contained": [
    {
      "resourceType": "Provenance",
      "id": "7c342c40-2471-498d-a937-d25dbae0dc7c",
      "meta": {
        "profile": [
          "https://fhir.nhs.uk/STU3/StructureDefinition/RARecord-Provenance-1"
        ]
      },
      "target": [
        {
          "reference": "9cbd3dda-c51a-4e68-af70-f0de60cb8ba7"
        }
      ],
      "recorded": "2016-03-01T10:05:33+00:00",
      "agent": [
        {
          "whoUri": "https://clinicals.spineservices.nhs.uk/STU3/ProvenanceServer/PractitionerRole/e5a11456",
          "_whoUri": {
            "fhir_comments": [
              " ProvenanceServer PractitionerRole endpoint uri "
            ]
          }
        }
      ]
    }
  ],
  "extension": [
    {
      "url": "https://fhir.nhs.uk/STU3/StructureDefinition/Extension-RARecord-Provenance-1",
      "extension": [
        {
          "url": "created",
          "valueReference": {
            "reference": "#7c342c40-2471-498d-a937-d25dbae0dc7c"
          }
        }
      ]
    }
  ],
  "clinicalStatus": "active",
  "category": [
    {
      "coding": [
        {
          "system": "https://fhir.hl7.org.uk/STU3/CodeSystem/CareConnect-ConditionCategory-1",
          "code": "issue",
          "display": "Issue"
        }
      ]
    }
  ],
  "code": {
    "coding": [
      {
        "system": "https://fhir.nhs.uk/STU3/CodeSystem/CodeSystem-RARecord-AccessibleInformationAdjustments-1",
        "code": "requiresinformationineasyread",
        "display": "Requires information in Easyread"
      }
    ]
  },
  "subject": {
    "identifier": {
      "system": "https://fhir.nhs.uk/Id/nhs-number",
      "value": "999999998"
    }
  }
}