<Condition xmlns="http://hl7.org/fhir">
    <id value="9cbd3dda-c51a-4e68-af70-f0de60cb8ba7"/>
    <meta>
        <profile value="https://fhir.nhs.uk/STU3/StructureDefinition/CareConnect-RARecord-Condition-1" />
    </meta>
    <contained>
        <Provenance xmlns="http://hl7.org/fhir">
            <id value="7c342c40-2471-498d-a937-d25dbae0dc7c" />
            <meta>
                <profile value="https://fhir.nhs.uk/STU3/StructureDefinition/RARecord-Provenance-1"/>
            </meta>
            <target>
                <reference value="9cbd3dda-c51a-4e68-af70-f0de60cb8ba7"/>
            </target>
            <recorded value="2016-03-01T10:05:33+00:00"/>
            <agent>
                <!-- ProvenanceServer PractitionerRole endpoint uri -->
                <whoUri value="https://spineservices.nhs.uk/SDSServer/PractitionerRole/e5a11456"/>
            </agent>
        </Provenance>
    </contained>
    <extension url="https://fhir.hl7.org.uk/STU3/StructureDefinition/Extension-RARecord-Provenance-1">
        <extension url="created">
            <valueReference>
                <reference value="#7c342c40-2471-498d-a937-d25dbae0dc7c"/>
            </valueReference>
        </extension>
    </extension>
    <clinicalStatus value="active"/>
    <category>
        <coding>
            <system value="https://fhir.nhs.uk/STU3/CodeSystem/CodeSystem-RARecord-FlagCategory-1"/>
            <code value="reasonable adjustments flag"/>
            <display value="Reasonable Adjustments Flag"/>
        </coding>
    </category>
    <code>
        <coding>
            <system value="https://fhir.nhs.uk/STU3/CodeSystem/CodeSystem-RARecord-AccessibleInformationAdjustments-1"/>
            <code value="requiresinformationineasyread"/>
            <display value="Requires information in Easyread"/>
        </coding>
    </code>
    <subject>
        <identifier>
            <system value="https://fhir.nhs.uk/Id/nhs-number"/>
            <value value="999999998"/>
        </identifier>
    </subject>
</Condition>