<?xml version="1.0" encoding="UTF-8"?>
<!--This example message is provided for illustrative purposes only. It has had no clinical validation. Where there are conflicts with the written message specification or schema, the specification or schema shall be considered to take precedence-->
<Bundle xmlns="http://hl7.org/fhir" xmlns:xsi="http://www.w3.org/2001/XMLSchema-instance" xsi:schemaLocation="http://hl7.org/fhir file:///C:/stu3/bundle.xsd">
	<id value="4e3ef073-dda5-4e57-b23b-ea3cab3ed96c"/>
	<meta>
		<profile value="https://fhir.nhs.uk/STU3/StructureDefinition/DCH-Bundle-1"/>
	</meta>
	<type value="message"/>
	<entry>
		<fullUrl value="urn:uuid:85c8a1c5-a8a1-41c9-bb99-20956fa66218"/>
		<resource>
			<MessageHeader>
				<id value="85c8a1c5-a8a1-41c9-bb99-20956fa66218"/>
				<meta>
					<profile value="https://fhir.nhs.uk/STU3/StructureDefinition/DCH-MessageHeader-1"/>
				</meta>
				<extension url="https://fhir.nhs.uk/STU3/StructureDefinition/Extension-DCH-MessageEventType-1">
					<valueCodeableConcept>
						<coding>
							<system value="https://fhir.nhs.uk/STU3/CodeSystem/DCH-MessageEventType-1"/>
							<code value="new"/>
							<display value="New event message"/>
						</coding>
					</valueCodeableConcept>
				</extension>
				<event>
					<system value="https://fhir.nhs.uk/STU3/CodeSystem/DCH-ChildHealthEventType-1"/>
					<code value="CH015"/>
					<display value="Immunisation Administration"/>
				</event>
				<timestamp value="2017-11-01T15:00:00+00:00"/>
				<source>
					<endpoint value="urn:nhs-uk:addressing:ods:A83627"/>
				</source>
				<responsible>
					<reference value="urn:uuid:3ff6d789-af64-4d9c-aa1d-0087d29e9e1c"/>
					<display value="SILVERDALE FAMILY PRACTICE"/>
				</responsible>
				<focus>
					<reference value="urn:uuid:12779557-9033-4213-876f-69a670cdf35d"/>
				</focus>
			</MessageHeader>
		</resource>
	</entry>
	<!--Responsible Org (MessageHeader.responsible)-->
	<entry>
		<fullUrl value="urn:uuid:3ff6d789-af64-4d9c-aa1d-0087d29e9e1c"/>
		<resource>
			<Organization>
				<id value="3ff6d789-af64-4d9c-aa1d-0087d29e9e1c"/>
				<meta>
					<profile value="https://fhir.nhs.uk/STU3/StructureDefinition/CareConnect-DCH-Organization-1"/>
				</meta>
				<identifier>
					<system value="https://fhir.nhs.uk/Id/ods-organization-code"/>
					<value value="A83627"/>
				</identifier>
				<name value="SILVERDALE FAMILY PRACTICE"/>
				<address>
					<line value="FRONT STREET"/>
					<line value="SOUTH HETTON"/>
					<city value="DURHAM"/>
					<district value="COUNTY DURHAM"/>
					<postalCode value="DH6 2TH"/>
				</address>
			</Organization>
		</resource>
	</entry>
	<!--Healthcare service used e.g GP, trust, etc..-->
	<entry>
		<fullUrl value="urn:uuid:5a293df7-b22f-41b6-8bf1-44248ea59edb"/>
		<resource>
			<HealthcareService>
				<id value="5a293df7-b22f-41b6-8bf1-44248ea59edb"/>
				<meta>
					<profile value="https://fhir.nhs.uk/STU3/StructureDefinition/DCH-HealthcareService-1"/>
				</meta>
				<identifier>
					<system value="urn:ietf:rfc:3986"/>
					<value value="2db9a96b-393f-4817-868f-3e064296f1f9"/>
				</identifier>
				<providedBy>
					<reference value="urn:uuid:3ff6d789-af64-4d9c-aa1d-0087d29e9e1c"/>
					<display value="SILVERDALE FAMILY PRACTICE"/>
				</providedBy>
				<!--***This should be a service not a professional e.g General Medical Practice not General Medical Practitioner***-->
				<type>
					<coding>
						<system value="https://fhir.nhs.uk/STU3/CodeSystem/DCH-ProfessionalType-1"/>
						<code value="M03"/>
						<display value="General Medical Practitioner"/>
					</coding>
				</type>
				<location>
					<reference value="urn:uuid:33a33b58-648a-4453-b981-e21ea9ebc6ea"/>
				</location>
				<telecom>
				<system value="phone"/>
					<value value="0191 1231234"/>
				</telecom>
			</HealthcareService>
		</resource>
	</entry>
		<!--Child Details (Jack Dawkins)-->
	<entry>
		<fullUrl value="urn:uuid:5d5845f3-398f-474b-af59-14882fc7b0ca"/>
		<resource>
			<Patient>
				<id value="5d5845f3-398f-474b-af59-14882fc7b0ca"/>
				<meta>
					<profile value="https://fhir.nhs.uk/STU3/StructureDefinition/CareConnect-DCH-Patient-1"/>
				</meta>
				<identifier>
						<extension url="https://fhir.nhs.uk/STU3/StructureDefinition/Extension-CareConnect-GPC-NHSNumberVerificationStatus-1">
							<valueCodeableConcept>
								<coding>
									<system value="https://fhir.nhs.uk/STU3/CareConnect-DCH-NHSNumberVerificationStatus-1"/>
									<code value="01"/>
									<display value="Number present and verified"/>
								</coding>
							</valueCodeableConcept>
						</extension>
						<system value="https://fhir.nhs.uk/Id/nhs-number"/>
						<value value="9912003888"/>
				</identifier>				
				<name>
					<use value="official"/>
					<family value="DAWKINS"/>
					<given value="Jack"/>
					<period>
						<start value="2017-10-12"/>
					</period>
				</name>
				<gender value="male"/>
				<birthDate value="2017-10-12">
					<extension url="http://hl7.org/fhir/StructureDefinition/patient-birthTime">
						<valueDateTime value="2017-10-02T12:00:00+00:00"/>
					</extension>
				</birthDate>
				<address>
					<use value="home"/>
					<line value="4 Sandmoor Drive"/>
					<city value="DURHAM"/>
					<postalCode value="DH1 2TF"/>
				</address>
			</Patient>
		</resource>
	</entry>
	<!--Encounter details-->
	<entry>
		<fullUrl value="urn:uuid:12779557-9033-4213-876f-69a670cdf35d"/>
		<resource>
			<Encounter>
				<id value="12779557-9033-4213-876f-69a670cdf35d"/>
				<meta>
					<profile value="https://fhir.nhs.uk/STU3/StructureDefinition/CareConnect-DCH-Encounter-1"/>
				</meta>
				<identifier>
					<system value="urn:ietf:rfc:3986"/>
					<value value="94ef4041-42f0-4e7a-946e-18e908d43404"/>
				</identifier>
				<status value="finished"/>
				<type>
					<coding>
						<system value="https://fhir.nhs.uk/DCH-ChildHealthEventType-1"/>
						<code value="GP Appointment"/>
						<display value="GP Appointment"/>
					</coding>
				</type>
				<subject>
					<reference value="urn:uuid:7368c5fe-bbb4-4e9c-a585-234e06b84e82"/>
					<display value="DWKINS, Jack"/>
				</subject>
				<period>
					<start value="2018-01-29"/>
				</period>
				<location>
					<location>
						<reference value="urn:uuid:3ff6d789-af64-4d9c-aa1d-0087d29e9e1c"/>
						<display value="SILVERDALE FAMILY PRACTICE"/>
					</location>
				</location>
				<serviceProvider>
					<reference value="urn:uuid:3ff6d789-af64-4d9c-aa1d-0087d29e9e1c"/>
					<display value="SILVERDALE FAMILY PRACTICE"/>
				</serviceProvider>
			</Encounter>
		</resource>
	</entry>
	<!--Immunizations-->
	
	<entry>
		<fullUrl value="urn:uuid:076db265-8799-4dda-9418-e2a4d6d1c0d0"/>
		<resource>
			<Immunization>
				<id value="076db265-8799-4dda-9418-e2a4d6d1c0d0"/>
				<meta>
					<profile value="https://fhir.nhs.uk/STU3/StructureDefinition/CareConnect-DCH-Immunization-1"/>
				</meta>
					<extension url="https://fhir.hl7.org.uk/STU3/StructureDefinition/Extension-CareConnect-DateRecorded-1">
						<valueDateTime value="2017-11-29"/>
					</extension>
				<status value="completed"/>
				<notGiven value="false"/>
				<vaccineCode>
					<coding>
						<system value="https://fhir.nhs.uk/DCH-ChildHealthEventType-1"/>
						<code value="396429000"/>
						<display value="Measles, mumps and rubella vaccine (substance)"/>
					</coding>
				</vaccineCode>
				<patient>
					<reference value="urn:uuid:7368c5fe-bbb4-4e9c-a585-234e06b84e82"/>
				</patient>
				<encounter>
					<reference value="urn:uuid:12779557-9033-4213-876f-69a670cdf35d"/>
				</encounter>
				<primarySource value="true"/>
				<location>
					<reference value="urn:uuid:5a293df7-b22f-41b6-8bf1-44248ea59edb"/>
				</location>
				<site>
					<coding>
						<system value="http://snomed.info/sct"/>
						<code value="368208006"/>
						<display value="Left upper arm structure (body structure)"/>
					</coding>
				</site>
				<route>
					<coding>
						<system value="http://snomed.info/sct"/>
						<code value="34206005"/>
						<display value="Subcutaneous route"/>
					</coding>
				</route>
				<doseQuantity>
					<value value="1"/>
				</doseQuantity>
				<practitioner>
					<actor>
						<reference value="urn:uuid:f25e9d63-6a4e-4de6-b9dc-c912fda62b01"/>
					</actor>
				</practitioner>
<!--to review
				<vaccinationProtocol>
					<targetDisease>
						<coding>
						<system value="http://snomed.info/sct"/>
						<code value="14189004"/>
						<display value="Measles (disorder)"/>
					</coding>
					<coding>
						<system value="http://snomed.info/sct"/>
						<code value="36989005"/>
						<display value="Mumps (disorder)"/>
					</coding>
					<coding>
						<system value="http://snomed.info/sct"/>
						<code value="36653000"/>
						<display value="Rubella (disorder)"/>
					</coding>
					</targetDisease>
					<doseStatus>
						
					</doseStatus>
				</vaccinationProtocol>
-->
			</Immunization>
		</resource>
	</entry>
	
	<!--Practitioner-->
	<entry>
		<fullUrl value="urn:uuid:f25e9d63-6a4e-4de6-b9dc-c912fda62b01"/>
		<resource>
			<Practitioner>
				<id value="f25e9d63-6a4e-4de6-b9dc-c912fda62b01"/>
				<meta>
					<profile value="https://fhir.nhs.uk/STU3/StructureDefinition/CareConnect-DCH-Practitioner-1"/>
				</meta>
				<identifier>
					<system value="https://fhir.nhs.uk/Id/sds-role-profile-id"/>
					<value value="PT2468"/>
				</identifier>
				<name>
					<family value="Strange"/>
					<given value="Stephen"/>
					<prefix value="Dr."/>
				</name>
			</Practitioner>
		</resource>
	</entry>
	<!--Practitioner Role-->
	<entry>
		<fullUrl value="urn:uuid:b7e3cc3a-9120-49fe-801c-2793b80ca922"/>
		<resource>
			<PractitionerRole>
				<id value="b7e3cc3a-9120-49fe-801c-2793b80ca922"/>
				<meta>
					<profile value="https://fhir.nhs.uk/STU3/StructureDefinition/CareConnect-DCH-PractitionerRole-1"/>
				</meta>
				<identifier>
					<system value="https://fhir.nhs.uk/Id/sds-role-profile-id"/>
					<value value="PT2468"/>
				</identifier>
				<practitioner>
					<reference value="urn:uuid:f25e9d63-6a4e-4de6-b9dc-c912fda62b01"/>
				</practitioner>
				<organization>
					<reference value="urn:uuid:5a293df7-b22f-41b6-8bf1-44248ea59edb"/>
				</organization>
				<code>
					
					<coding>
						<system value="https://fhir.nhs.uk/STU3/CodeSystem/CareConnect-DCH-SDSJobRoleName-1"/>
						<code value="R0260"/>
						<display value="General Medical Practitioner"/>
					</coding>
				</code>
			</PractitionerRole>
		</resource>
	</entry>
	<!--Location where event took place-->
	<entry>
		<fullUrl value="urn:uuid:5a293df7-b22f-41b6-8bf1-44248ea59edb"/>
		<resource>
			<Location>
				<id value="5a293df7-b22f-41b6-8bf1-44248ea59edb"/>
				<meta>
					<profile value="https://fhir.nhs.uk/STU3/StructureDefinition/CareConnect-DCH-Location-1"/>
				</meta>
				<identifier>
					<system value="https://fhir.nhs.uk/Id/ods-site-code"/>
					<value value="A83627"/>
				</identifier>
				<name value="SILVERDALE FAMILY PRACTICE"/>
			</Location>
		</resource>
	</entry>
</Bundle>
