<?xml version="1.0" encoding="UTF-8"?>
<!--This example message is provided for illustrative purposes only. It has had no clinical validation. Where there are conflicts with the written message specification or schema, the specification or schema shall be considered to take precedence-->
<Bundle xmlns="http://hl7.org/fhir" xmlns:xsi="http://www.w3.org/2001/XMLSchema-instance" xsi:schemaLocation="http://hl7.org/fhir file:///C:/stu3/bundle.xsd">
	<id value="a8ca980c-72aa-11e7-8cf7-a6006ad3dba0"/>
	<meta>
		<profile value="https://fhir.nhs.uk/StructureDefinition/DCH-Bundle-1"/>
	</meta>
	<type value="message"/>
	<!--Message Header-->
		<entry>
		<fullUrl value="urn:uuid:9d2e2cd9-ffe1-49c7-be43-f36e30564d3f"/>
		<resource>
			<MessageHeader>
				<id value="9d2e2cd9-ffe1-49c7-be43-f36e30564d3f"/>
				<meta>
					<profile value="https://fhir.nhs.uk/STU3/StructureDefinition/DCH-MessageHeader-1"/>
				</meta>
				<extension url="https://fhir.nhs.uk/STU3/StructureDefinition/Extension-DCH-MessageEventType-1">
					<valueCodeableConcept>
						<coding>
							<system value="https://fhir.nhs.uk/STU3/CodeSystem/DCH-MessageEventType-1"/>
							<code value="new"/>
							<display value="New event message"/>
						</coding>
					</valueCodeableConcept>
				</extension>
				<event>
					<system value="https://fhir.nhs.uk/STU3/CodeSystem/DCH-ChildHealthEventType-1"/>
					<code value="CH012"/>
					<display value="Examination Findings"/>
				</event>
				<timestamp value="2017-11-01T15:00:00+00:00"/>
				<source>
					<endpoint value="urn:nhs-uk:addressing:ods:RX3EP"/>
				</source>
				<responsible>
					<reference value="urn:uuid:33a33b58-648a-4453-b981-e21ea9ebc6ea"/>
					<display value="UNIVERSITY HOSPITAL OF NORTH DURHAM"/>
				</responsible>
				<focus>
					<reference value="urn:uuid:1bcb0151-4ddf-4084-9c06-e8a31fdcf25b"/>
				</focus>
			</MessageHeader>
		</resource>
	</entry>
	
	<!--Responsible for message content (Birth)-->
	<entry>
		<fullUrl value="urn:uuid:33a33b58-648a-4453-b981-e21ea9ebc6ea"/>
		<resource>
			<Organization>
				<id value="33a33b58-648a-4453-b981-e21ea9ebc6ea"/>
				<meta>
					<profile value="https://fhir.nhs.uk/STU3/StructureDefinition/CareConnect-Organization-1"/>
				</meta>
				<identifier>
					<system value="https://fhir.nhs.uk/Id/ods-organization-code"/>
					<value value="RX3EP"/>
				</identifier>
				<name value="UNIVERSITY HOSPITAL OF NORTH DURHAM"/>
				<address>
					<line value="NORTH ROAD"/>
					<city value="DURHAM"/>
					<district value="COUNTY DURHAM"/>
					<postalCode value="DH1 5TW"/>
				</address>
			</Organization>
		</resource>
	</entry>
	
	<!--Healthcare service used e.g GP, trust, etc..-->
	<entry>
		<fullUrl value="urn:uuid:5a293df7-b22f-41b6-8bf1-44248ea59edb"/>
		<resource>
			<HealthcareService>
				<id value="2db9a96b-393f-4817-868f-3e064296f1f9"/>
				<meta>
					<profile value="https://fhir.nhs.uk/STU3/StructureDefinition/DCH-HealthcareService-1"/>
				</meta>
				<identifier>
					<system value="urn:ietf:rfc:3986"/>
					<value value="2db9a96b-393f-4817-868f-3e064296f1f9"/>
				</identifier>
				<providedBy>
					<reference value="urn:uuid:3ff6d789-af64-4d9c-aa1d-0087d29e9e1c"/>
					<display value="UNIVERSITY HOSPITAL OF NORTH DURHAM"/>
				</providedBy>
				<type>
					<coding>
						<system value="https://fhir.nhs.uk/STU3/CodeSystem/DCH-ProfessionalType-1"/>
						<code value="M02"/>
						<display value="Consultant"/>
					</coding>
				</type>
				<specialty>
					<coding>
						<system value="https://fhir.nhs.uk/STU3/CodeSystem/DCH-Specialty-1"/>
						<code value="560"/>
						<display value="MIDWIFE EPISODE"/>
					</coding>
				</specialty>
				<location>
					<reference value="urn:uuid:e3177167-40fc-4f1a-80f2-a2f17f18fde7"/>
				</location>			
			</HealthcareService>
		</resource>
	</entry>
	<!-- Patient-->
	<entry>
		<fullUrl value="urn:uuid:7368c5fe-bbb4-4e9c-a585-234e06b84e82"/>
		<resource>
			<Patient>
				<id value="7368c5fe-bbb4-4e9c-a585-234e06b84e82"/>
				<meta>
					<profile value="https://fhir.hl7.org.uk/STU3/StructureDefinition/CareConnect-Baby-Patient-1"/>
				</meta>
				<identifier>
					<extension url="https://fhir.hl7.org.uk/STU3/StructureDefinition/Extension-CareConnect-NHSNumberVerificationStatus-1">
						<valueCodeableConcept>
							<coding>
								<system value="https://fhir.hl7.org.uk/STU3/CareConnect-NHSNumberVerificationStatus-1"/>
								<code value="01"/>
								<display value="Number present and verified"/>
							</coding>
						</valueCodeableConcept>
					</extension>
					<extension url="http://hl7.org/fhir/StructureDefinition/birthPlace">
						<valueAddress>
							<city value="DURHAM"/>
							<district value="West Yorkshire"/>
							<country value="UK"/>
						</valueAddress>
					</extension>
					<system value="https://fhir.nhs.uk/Id/nhs-number"/>
					<value value="9912003888"/>
				</identifier>
				<identifier>
					<system value="https://fhir.nhs.uk/Id/local-patient-identifier"/>
					<value value="123456"/>
				</identifier>
				<name>
					<family value="DAWKINS"/>
					<given value="Jack"/>
				</name>
				<birthDate value="2017-10-02">
					<extension url="http://hl7.org/fhir/StructureDefinition/patient-birthTime">
						<valueDateTime value="2017-10-02T20:12:00+00:00"/>
					</extension>
				</birthDate>
				<address>
					<use value="home"/>
					<line value="4 Sandmoor Drive"/>
					<city value="DURHAM"/>
					<postalCode value="DH1 2TF"/>
				</address>
				<multipleBirthInteger value="1"/>
			</Patient>
		</resource>
	</entry>
	
	<!--Encounter details-->
<entry>
		<fullUrl value="urn:uuid:1bcb0151-4ddf-4084-9c06-e8a31fdcf25b"/>
		<resource>
			<Encounter>
				<id value="1bcb0151-4ddf-4084-9c06-e8a31fdcf25b"/>
				<meta>
					<profile value="https://fhir.nhs.uk/StructureDefinition/CareConnect-DCH-Encounter-1"/>
				</meta>
				<identifier>
					<system value="urn:ietf:rfc:3986"/>
					<value value="af71a415-ae02-4159-914b-8b78c499fb1d"/>
				</identifier>
				<status value="finished"/>
				<subject>
					<reference value="urn:uuid:7368c5fe-bbb4-4e9c-a585-234e06b84e82"/>
					<display value="DAWKINS, Jack"/>
				</subject>
				<period>
					<start value="2017-10-12T09:00:00"/>
				</period>
				<location>
					<location>
						<reference value="urn:uuid:02692f55-56cf-4dda-8ef5-e9ec13f6bd99"/>
					</location>
				</location>
				<serviceProvider>
					<reference value="urn:uuid:5a293df7-b22f-41b6-8bf1-44248ea59edb"/>
				</serviceProvider>
			</Encounter>
		</resource>
	</entry>
	
<!--Examination findings (Questionnaire)-->
	<entry>
		<fullUrl value="urn:uuid:12a254e5-deb6-4efd-9bb1-36d286115819"/>
		<resource>
			<QuestionnaireResponse>
			<id value="12a254e5-deb6-4efd-9bb1-36d286115819"/>
			<meta>
				<profile value="https://fhir.nhs.uk/STU3/StructureDefinition/DCH-ExaminationFindings-QuestionnaireResponse-1"/>
			</meta>
			<identifier>
				<system value="urn:ietf:rfc:3986"/>
				<value value="b7518c02-b58b-4e84-ab27-dbfc2955bffb"/>
			</identifier>
			<status value="completed"/>
			<subject>
				<reference value="7368c5fe-bbb4-4e9c-a585-234e06b84e82"/>
			</subject>
			<context>
				<reference value="a8ca9fe6-72aa-11e7-8cf7-a6006ad3dba0"/>
			</context>
<!--Need code. VS has no code to use-->
			<item>
				<linkId value="generalAppearanceColour"/>
				<text value="General Appearance Colour"/>
				<answer>
					<valueCoding>
						<system value=""/>
						<code value="New code needed"/>
						<display value="Assessment/Examination done, no difficulty suspected"/>
					</valueCoding>
				</answer>
			</item>		
			<item>
				<linkId value="headAndSkull"/>
				<text value="Head and Skull"/>
				<answer>
					<valueCoding>
						<system value=""/>
						<code value="New code needed"/>
						<display value="Assessment/Examination done, no difficulty suspected"/>
					</valueCoding>
				</answer>
			</item>		
			<item>
				<linkId value="face"/>
				<text value="Face"/>
				<answer>
					<valueCoding>
						<system value=""/>
						<code value="New code needed"/>
						<display value="Assessment/Examination done, no difficulty suspected"/>
					</valueCoding>
				</answer>
			</item>		
			<item>
				<linkId value="ears"/>
				<text value="Ears"/>
				<answer>
					<valueCoding>
						<system value=""/>
						<code value="New code needed"/>
						<display value="Assessment/Examination done, no difficulty suspected"/>
					</valueCoding>
				</answer>
			</item>		
			<item>
				<linkId value="chest"/>
				<text value="Chest"/>
				<answer>
					<valueCoding>
						<system value=""/>
						<code value="New code needed"/>
						<display value="Assessment/Examination done, no difficulty suspected"/>
					</valueCoding>
				</answer>
			</item>		
			</QuestionnaireResponse>			
		</resource>
	</entry>
	
	<!--Practitioner from Encounter-->
	<entry>
		<fullUrl value="urn:uuid:e9dbf8e8-5bdc-11e7-907b-a6006ad3dba0"/>
		<resource>
			<Practitioner>
				<id value="e9dbf8e8-5bdc-11e7-907b-a6006ad3dba0"/>
				<meta>
					<profile value="https://fhir.hl7.org.uk/StructureDefinition/CareConnect-DCH-Practitioner-1"/>
				</meta>
				<identifier>
					<system value="https://fhir.nhs.uk/Id/sds-role-profile-id"/>
					<value value="PT2468"/>
				</identifier>
				<name>
					<family value="Bashir"/>
					<given value="Julian"/>
					<prefix value="Dr."/>
				</name>
			</Practitioner>
		</resource>
	</entry>
	<!--Location where event took place-->
	<entry>
		<fullUrl value="urn:uuid:e3177167-40fc-4f1a-80f2-a2f17f18fde7"/>
		<resource>
			<Location>
				<id value="e3177167-40fc-4f1a-80f2-a2f17f18fde7"/>
				<meta>
					<profile value="https://fhir.hl7.org.uk/StructureDefinition/CareConnect-DCH-Location-1"/>
				</meta>
				<identifier>
					<system value="https://fhir.nhs.uk/Id/ods-site-code"/>
					<value value="RX3EP"/>
				</identifier>
				<name value="UNIVERSITY HOSPITAL OF NORTH DURHAM"/>
			</Location>
		</resource>
	</entry>
	
	
</Bundle>
