{
  "resourceType": "Bundle",
  "id": "a8ca980c-72aa-11e7-8cf7-a6006ad3dba0",
  "meta": {
    "profile": [
      "https://fhir.nhs.uk/STU3/StructureDefinition/DCH-Bundle-1"
    ]
  },
  "type": "message",
  "entry": [
    {
      "fullUrl": "urn:uuid:85c8a1c5-a8a1-41c9-bb99-20956fa66218",
      "resource": {
        "resourceType": "MessageHeader",
        "id": "85c8a1c5-a8a1-41c9-bb99-20956fa66218",
        "meta": {
          "profile": [
            "https://fhir.nhs.uk/STU3/StructureDefinition/DCH-MessageHeader-1"
          ]
        },
        "extension": [
          {
            "url": "https://fhir.nhs.uk/STU3/StructureDefinition/Extension-DCH-MessageEventType-1",
            "valueCodeableConcept": {
              "coding": [
                {
                  "system": "https://fhir.nhs.uk/STU3/CodeSystem/DCH-MessageEventType-1",
                  "code": "new",
                  "display": "New event message"
                }
              ]
            }
          }
        ],
        "event": {
          "system": "https://fhir.nhs.uk/STU3/CodeSystem/DCH-ChildHealthEventType-1",
          "code": "CH030",
          "display": "Social Context Household"
        },
        "timestamp": "2017-11-01T15:00:00+00:00",
        "source": {
          "endpoint": "urn:nhs-uk:addressing:ods:RX3QJ"
        },
        "responsible": {
          "reference": "urn:uuid:48833cb6-a2d5-4364-9b08-7d2ef6dacffb",
          "display": "DURHAM SOCIAL SERVICES"
        },
        "focus": [
          {
            "reference": "urn:uuid:b6c9ce9b-4092-448b-8fc0-287cd26cec4b"
          }
        ]
      }
    },
    {
      "fullUrl": "urn:uuid:48833cb6-a2d5-4364-9b08-7d2ef6dacffb",
      "resource": {
        "resourceType": "Organization",
        "id": "48833cb6-a2d5-4364-9b08-7d2ef6dacffb",
        "meta": {
          "profile": [
            "https://fhir.nhs.uk/STU3/StructureDefinition/CareConnect-DCH-Organization-1"
          ]
        },
        "identifier": [
          {
            "system": "https://fhir.nhs.uk/Id/ods-organization-code",
            "value": "RX3QJ"
          }
        ],
        "name": "DURHAM SOCIAL SERVICES",
        "address": [
          {
            "line": [
              "PRIORY HOUSE",
              "ABBEY ROAD"
            ],
            "city": "PITY ME",
            "district": "COUNTY DURHAM",
            "postalCode": "DH1 5RR"
          }
        ]
      }
    },
    {
      "fullUrl": "urn:uuid:5a293df7-b22f-41b6-8bf1-44248ea59edb",
      "resource": {
        "resourceType": "HealthcareService",
        "id": "5a293df7-b22f-41b6-8bf1-44248ea59edb",
        "meta": {
          "profile": [
            "https://fhir.nhs.uk/STU3/StructureDefinition/DCH-HealthcareService-1"
          ]
        },
        "identifier": [
          {
            "system": "urn:ietf:rfc:3986",
            "value": "2db9a96b-393f-4817-868f-3e064296f1f9"
          }
        ],
        "providedBy": {
          "reference": "urn:uuid:48833cb6-a2d5-4364-9b08-7d2ef6dacffb",
          "display": "DURHAM SOCIAL SERVICES"
        },
        "type": [
          {
            "coding": [
              {
                "system": "https://fhir.nhs.uk/STU3/CodeSystem/DCH-ProfessionalType-1",
                "code": "N03",
                "display": "Health Visitor"
              }
            ]
          }
        ],
        "specialty": [
          {
            "coding": [
              {
                "system": "https://fhir.nhs.uk/STU3/CodeSystem/DCH-Specialty-1",
                "code": "950",
                "display": "NURSING EPISODE"
              }
            ]
          }
        ],
        "location": [
          {
            "reference": "urn:uuid:33a33b58-648a-4453-b981-e21ea9ebc6ea"
          }
        ],
        "telecom": [
          {
            "system": "phone",
            "value": "0191 9876543"
          }
        ]
      }
    },
    {
      "fullUrl": "urn:uuid:5d5845f3-398f-474b-af59-14882fc7b0ca",
      "resource": {
        "resourceType": "Patient",
        "id": "5d5845f3-398f-474b-af59-14882fc7b0ca",
        "meta": {
          "profile": [
            "https://fhir.nhs.uk/STU3/StructureDefinition/CareConnect-DCH-Patient-1"
          ]
        },
        "identifier": [
          {
            "extension": [
              {
                "url": "https://fhir.hl7.org.uk/STU3/StructureDefinition/Extension-CareConnect-NHSNumberVerificationStatus-1",
                "valueCodeableConcept": {
                  "coding": [
                    {
                      "system": "https://fhir.hl7.org.uk/STU3/CodeSystem/CareConnect-NHSNumberVerificationStatus-1",
                      "code": "01",
                      "display": "Number present and verified"
                    }
                  ]
                }
              }
            ],
            "system": "https://fhir.nhs.uk/Id/nhs-number",
            "value": "9912003888"
          }
        ],
        "name": [
          {
            "use": "official",
            "family": "DAWKINS",
            "given": [
              "Jack"
            ],
            "period": {
              "start": "2014-10-12"
            }
          }
        ],
        "birthDate": "2013-10-12",
        "_birthDate": {
          "extension": [
            {
              "url": "http://hl7.org/fhir/StructureDefinition/patient-birthTime",
              "valueDateTime": "2017-10-02T12:00:00+00:00"
            }
          ]
        },
        "address": [
          {
            "use": "home",
            "line": [
              "4 Sandmoor Drive"
            ],
            "city": "DURHAM",
            "postalCode": "DH1 2TF"
          }
        ]
      }
    },
    {
      "fullUrl": "urn:uuid:b6c9ce9b-4092-448b-8fc0-287cd26cec4b",
      "resource": {
        "resourceType": "Encounter",
        "id": "b6c9ce9b-4092-448b-8fc0-287cd26cec4b",
        "meta": {
          "profile": [
            "https://fhir.nhs.uk/STU3/StructureDefinition/CareConnect-DCH-Encounter-1"
          ]
        },
        "identifier": [
          {
            "system": "urn:ietf:rfc:3986",
            "value": "92c72a88-3e77-46e1-9453-da4ecc780575"
          }
        ],
        "status": "finished",
        "type": [
          {
            "coding": [
              {
                "system": "https://fhir.nhs.uk/STU3/CodeSystem/DCH-ChildHealthEncounterType-1",
                "code": "0022",
                "display": "6-8 Week Health Visitor review"
              }
            ]
          }
        ],
        "subject": {
          "reference": "urn:uuid:7368c5fe-bbb4-4e9c-a585-234e06b84e82",
          "display": "DAWKINS, Jack"
        },
        "period": {
          "start": "2018-01-29"
        },
        "location": [
          {
            "location": {
              "reference": "urn:uuid:e3177167-40fc-4f1a-80f2-a2f17f18fde7",
              "display": "DURHAM SOCIAL SERVICES"
            }
          }
        ],
        "serviceProvider": {
          "reference": "urn:uuid:e3177167-40fc-4f1a-80f2-a2f17f18fde7",
          "display": "DURHAM SOCIAL SERVICES"
        }
      }
    },
    {
      "fullUrl": "urn:uuid:9fa0541c-67a2-4946-a7e3-ef3c4a8991f1",
      "resource": {
        "resourceType": "QuestionnaireResponse",
        "id": "9fa0541c-67a2-4946-a7e3-ef3c4a8991f1",
        "meta": {
          "profile": [
            "https://fhir.nhs.uk/STU3/StructureDefinition/DCH-SocialContextHousehold-QuestionnaireResponse-1"
          ]
        },
        "identifier": {
          "system": "urn:ietf:rfc:3986",
          "value": "2d80c64f-9f4a-4786-b5b3-397612bca986"
        },
        "status": "completed",
        "subject": {
          "reference": "urn:uuid:7368c5fe-bbb4-4e9c-a585-234e06b84e82"
        },
        "context": {
          "reference": "urn:uuid:b6c9ce9b-4092-448b-8fc0-287cd26cec4b"
        },
        "author": {
          "reference": "urn:uuid:e0eb638c-3ac2-484a-a2d9-3357608f38f0"
        },
        "item": [
          {
            "linkId": "mothersEducationLevel",
            "text": "Mothers Education Level",
            "answer": [
              {
                "valueCoding": {
                  "system": "https://fhir.nhs.uk/STU3/CodeSystem/DCH-EducationLevel-1",
                  "code": "Level 7",
                  "display": "Master's degree"
                }
              }
            ]
          },
          {
            "linkId": "householdSmokingStatus",
            "text": "Household smoking status",
            "answer": [
              {
                "valueCoding": {
                  "system": "http://snomed.info/sct",
                  "code": "94151000119101",
                  "display": "Smoker in household"
                }
              }
            ]
          },
          {
            "linkId": "substanceStatus",
            "text": "Household substance status",
            "answer": [
              {
                "valueCoding": {
                  "system": "http://snomed.info/sct",
                  "code": "New coded needed",
                  "display": "New coded needed"
                }
              }
            ]
          },
          {
            "linkId": "householdAlcoholDrinkingStatus",
            "text": "Household alcohol drinking status",
            "answer": [
              {
                "valueString": "No concerns around the consumption of alcohol"
              }
            ]
          },
          {
            "linkId": "employmentStatusMother",
            "text": "Employment status (Mother)",
            "answer": [
              {
                "valueCoding": {
                  "system": "https://fhir.nhs.uk/STU3/CodeSystem/DCH-EmploymentStatus-1",
                  "code": "1",
                  "display": "Employed"
                }
              }
            ]
          },
          {
            "linkId": "occupationMother",
            "text": "Mother's Occupation",
            "answer": [
              {
                "valueString": "Accountant"
              }
            ]
          },
          {
            "linkId": "employmentStatusFather",
            "text": "Employment status (Father)",
            "answer": [
              {
                "valueCoding": {
                  "system": "https://fhir.nhs.uk/STU3/CodeSystem/DCH-EmploymentStatus-1",
                  "code": "1",
                  "display": "Employed"
                }
              }
            ]
          },
          {
            "linkId": "occupationFather",
            "text": "Father's Occupation",
            "answer": [
              {
                "valueString": "Business Analyst"
              }
            ]
          },
          {
            "linkId": "accommodationStatus",
            "text": "Accommodation status",
            "answer": [
              {
                "valueCoding": {
                  "system": "https://fhir.nhs.uk/STU3/CodeSystem/DCH-AccommodationStatus-1",
                  "code": "MA01",
                  "display": "Owner occupier"
                }
              }
            ]
          }
        ]
      }
    },
    {
      "fullUrl": "urn:uuid:e0eb638c-3ac2-484a-a2d9-3357608f38f0",
      "resource": {
        "resourceType": "Practitioner",
        "id": "e0eb638c-3ac2-484a-a2d9-3357608f38f0",
        "meta": {
          "profile": [
            "https://fhir.nhs.uk/STU3/StructureDefinition/CareConnect-DCH-Practitioner-1"
          ]
        },
        "identifier": [
          {
            "system": "https://fhir.nhs.uk/Id/sds-role-profile-id",
            "value": "PT2469"
          }
        ],
        "name": [
          {
            "family": "Ripley",
            "given": [
              "Ellen"
            ]
          }
        ]
      }
    },
    {
      "fullUrl": "urn:uuid:e3177167-40fc-4f1a-80f2-a2f17f18fde7",
      "resource": {
        "resourceType": "Location",
        "id": "e3177167-40fc-4f1a-80f2-a2f17f18fde7",
        "meta": {
          "profile": [
            "https://fhir.nhs.uk/STU3/StructureDefinition/CareConnect-DCH-Location-1"
          ]
        },
        "identifier": [
          {
            "system": "https://fhir.nhs.uk/Id/ods-site-code",
            "value": "RX3QJ"
          }
        ],
        "name": "DURHAM SOCIAL SERVICES"
      }
    }
  ]
}