<?xml version="1.0" encoding="UTF-8"?>
<Bundle xmlns="http://hl7.org/fhir">
	<id value="d46facde-a1fe-11e8-98d0-529269fb1459"/>
	<meta>
		<profile value="https://fhir.nhs.uk/STU3/StructureDefinition/DCH-Bundle-1"/>
	</meta>
	<type value="message"/>
	<!--Message Header-->
	<entry>
		<fullUrl value="urn:uuid:d46fb09e-a1fe-11e8-98d0-529269fb1459"/>
		<resource>
			<MessageHeader>
				<id value="d46fb09e-a1fe-11e8-98d0-529269fb1459"/>
				<meta>
					<profile value="https://fhir.nhs.uk/STU3/StructureDefinition/DCH-MessageHeader-1"/>
				</meta>
				<extension url="https://fhir.nhs.uk/STU3/StructureDefinition/Extension-DCH-MessageEventType-1">
					<valueCodeableConcept>
						<coding>
							<system value="https://fhir.nhs.uk/STU3/CodeSystem/DCH-MessageEventType-1"/>
							<code value="new"/>
							<display value="New event message"/>
						</coding>
					</valueCodeableConcept>
				</extension>
				<event>
					<system value="https://fhir.nhs.uk/STU3/CodeSystem/DCH-ChildHealthEventType-1"/>
					<code value="CH027"/>
					<display value="Professional Contacts"/>
				</event>
				<timestamp value="2018-10-13T12:00:00+00:00"/>
				<source>
					<endpoint value="rn:nhs:addressing:asid:477121000325"/>
				</source>
				<responsible>
					<reference value="urn:uuid:d46fb2f6-a1fe-11e8-98d0-529269fb1459"/>
					<display value="LEEDS COMMUNITY HEALTHCARE NHS TRUST"/>
				</responsible>
				<focus>
					<reference value="urn:uuid:d46fb8aa-a1fe-11e8-98d0-529269fb1459"/>
				</focus>
			</MessageHeader>
		</resource>
	</entry>
	<!--Responsible Org (MessageHeader.responsible)-->
	<entry>
		<fullUrl value="urn:uuid:d46fb2f6-a1fe-11e8-98d0-529269fb1459"/>
		<resource>
			<Organization>
				<id value="d46fb2f6-a1fe-11e8-98d0-529269fb1459"/>
				<meta>
					<profile value="https://fhir.hl7.org.uk/STU3/StructureDefinition/CareConnect-Organization-1"/>
				</meta>
				<identifier>
					<system value="https://fhir.nhs.uk/Id/ods-organization-code"/>
					<value value="RY6"/>
				</identifier>
				<name value="LEEDS COMMUNITY HEALTHCARE NHS TRUST"/>
				<telecom>
					<system value="phone"/>
					<value value="01318435683"/>
				</telecom>
				<telecom>
					<system value="email"/>
					<value value="chs@lcht.nhs.uk"/>
				</telecom>
			</Organization>
		</resource>
	</entry>
	<!--Healthcare service used e.g GP, trust, etc..-->
	<entry>
		<fullUrl value="urn:uuid:d46fbcf6-a1fe-11e8-98d0-529269fb1459"/>
		<resource>
			<HealthcareService>
				<id value="d46fbcf6-a1fe-11e8-98d0-529269fb1459"/>
				<meta>
					<profile value="https://fhir.nhs.uk/STU3/StructureDefinition/DCH-HealthcareService-1"/>
				</meta>
				<providedBy>
					<reference value="urn:uuid:d46fb2f6-a1fe-11e8-98d0-529269fb1459"/>
					<display value="LEEDS COMMUNITY HEALTHCARE NHS TRUST"/>
				</providedBy>
				<type>
					<coding>
						<system value="http://snomed.info/sct"/>
						<code value="829981000000108"/>
						<display value="Community child health service"/>
					</coding>
				</type>
				<location>
					<reference value="urn:uuid:d46fbf12-a1fe-11e8-98d0-529269fb1459"/>
				</location>
			</HealthcareService>
		</resource>
	</entry>
	<!--Child Details (Jack Dawkins)-->
	<entry>
		<fullUrl value="urn:uuid:d46fc14c-a1fe-11e8-98d0-529269fb1459"/>
		<resource>
			<Patient>
				<id value="d46fc14c-a1fe-11e8-98d0-529269fb1459"/>
				<meta>
					<profile value="https://fhir.nhs.uk/STU3/StructureDefinition/CareConnect-DCH-Patient-1"/>
				</meta>
				<identifier>
					<extension url="https://fhir.hl7.org.uk/STU3/StructureDefinition/Extension-CareConnect-NHSNumberVerificationStatus-1">
						<valueCodeableConcept>
							<coding>
								<system value="https://fhir.hl7.org.uk/STU3/CodeSystem/CareConnect-NHSNumberVerificationStatus-1"/>
								<code value="01"/>
								<display value="Number present and verified"/>
							</coding>
						</valueCodeableConcept>
					</extension>
					<system value="https://fhir.nhs.uk/Id/nhs-number"/>
					<value value="9912003888"/>
				</identifier>
				<name>
					<use value="official"/>
					<family value="DAWKINS"/>
					<given value="Jack"/>
				</name>
				<gender value="male"/>
				<birthDate value="2018-10-12">
					<extension url="http://hl7.org/fhir/StructureDefinition/patient-birthTime">
						<valueDateTime value="2018-10-12T12:00:00+00:00"/>
					</extension>
				</birthDate>
				<address>
					<use value="home"/>
					<line value="4 Sandmoor Drive"/>
					<city value="DURHAM"/>
					<postalCode value="DH1 2TF"/>
				</address>
			</Patient>
		</resource>
	</entry>
	<!--Encounter details-->
	<entry>
		<fullUrl value="urn:uuid:d46fb8aa-a1fe-11e8-98d0-529269fb1459"/>
		<resource>
			<Encounter>
				<id value="d46fb8aa-a1fe-11e8-98d0-529269fb1459"/>
				<meta>
					<profile value="https://fhir.nhs.uk/STU3/StructureDefinition/CareConnect-DCH-Encounter-1"/>
				</meta>
				<status value="finished"/>
				<subject>
					<reference value="urn:uuid:d46fc14c-a1fe-11e8-98d0-529269fb1459"/>
					<display value="DAWKINS, Jack"/>
				</subject>
				<period>
					<start value="2018-10-13"/>
				</period>
				<location>
					<location>
						<reference value="urn:uuid:d46fbf12-a1fe-11e8-98d0-529269fb1459"/>
						<display value="STOCKDALE HOUSE"/>
					</location>
				</location>
				<serviceProvider>
					<reference value="urn:uuid:d46fbcf6-a1fe-11e8-98d0-529269fb1459"/>
					<display value="LEEDS COMMUNITY HEALTHCARE NHS TRUST"/>
				</serviceProvider>
			</Encounter>
		</resource>
	</entry>
	<!--Pro Contact Episode of Care-->
	<entry>
		<fullUrl value="urn:uuid:5812bce1-58c4-43c0-bd17-30d5a567d87e"/>
		<resource>
			<EpisodeOfCare>
				<id value="5812bce1-58c4-43c0-bd17-30d5a567d87e"/>
				<meta>
					<profile value="https://fhir.nhs.uk/STU3/StructureDefinition/DCH-ProfessionalContact-EpisodeOfCare-1"/>
				</meta>
				<status value="active"/>
				<type>
					<coding>
						<system value="https://fhir.nhs.uk/STU3/CodeSystem/DCH-AssociationType-1"/>
						<code value="Permanent"/>
						<display value="Permanent"/>
					</coding>
				</type>
				<patient>
					<reference value="urn:uuid:d46fc14c-a1fe-11e8-98d0-529269fb1459"/>
				</patient>
				<period>
					<start value="2018-10-13T12:00:00+00:00"/>
				</period>
				<team>
					<reference value="urn:uuid:d46fcd0e-a1fe-11e8-98d0-529269fb1459"/>
				</team>
			</EpisodeOfCare>
		</resource>
	</entry>
	<!--CareTeam-->
	<entry>
		<fullUrl value="urn:uuid:d46fcd0e-a1fe-11e8-98d0-529269fb1459"/>
		<resource>
			<CareTeam>
				<id value="d46fcd0e-a1fe-11e8-98d0-529269fb1459"/>
				<meta>
					<profile value="https://fhir.nhs.uk/STU3/StructureDefinition/DCH-CareTeam-1"/>
				</meta>
				<name value="Leed Community Child Health Service"/>
				<subject>
					<reference value="urn:uuid:d46fc14c-a1fe-11e8-98d0-529269fb1459"/>
					<display value="DAWKINS, Jack"/>
				</subject>
				<context>
					<reference value="urn:uuid:d46fb8aa-a1fe-11e8-98d0-529269fb1459"/>
				</context>
				<managingOrganization>
					<reference value="urn:uuid:d46fb2f6-a1fe-11e8-98d0-529269fb1459"/>
					<display value="LEEDS COMMUNITY HEALTHCARE NHS TRUST"/>
				</managingOrganization>
			</CareTeam>
		</resource>
	</entry>
	<!--Location where event took place-->
	<entry>
		<fullUrl value="urn:uuid:d46fbf12-a1fe-11e8-98d0-529269fb1459"/>
		<resource>
			<Location>
				<id value="d46fbf12-a1fe-11e8-98d0-529269fb1459"/>
				<meta>
					<profile value="https://fhir.hl7.org.uk/STU3/StructureDefinition/CareConnect-Location-1"/>
				</meta>
				<identifier>
					<system value="https://fhir.nhs.uk/Id/ods-site-code"/>
					<value value="RY651"/>
				</identifier>
				<name value="STOCKDALE HOUSE"/>
				<managingOrganization>
					<reference value="urn:uuid:d46fb2f6-a1fe-11e8-98d0-529269fb1459"/>
				</managingOrganization>
			</Location>
		</resource>
	</entry>
</Bundle>
