<?xml version="1.0" encoding="UTF-8"?>
<!--This example message is provided for illustrative purposes only. It has had no clinical validation. Where there are conflicts with the written message specification or schema, the specification or schema shall be considered to take precedence-->
<Bundle xmlns="http://hl7.org/fhir">
	<id value="a8ca980c-72aa-11e7-8cf7-a6006ad3dba0"/>
	<meta>
		<profile value="https://fhir.nhs.uk/StructureDefinition/DCH-Bundle-1"/>
	</meta>
	<type value="message"/>
			<entry>
		<fullUrl value="urn:uuid:85c8a1c5-a8a1-41c9-bb99-20956fa66218"/>
		<resource>
			<MessageHeader>
				<id value="85c8a1c5-a8a1-41c9-bb99-20956fa66218"/>
				<meta>
					<profile value="https://fhir.nhs.uk/STU3/StructureDefinition/DCH-MessageHeader-1"/>
				</meta>
				<extension url="https://fhir.nhs.uk/STU3/StructureDefinition/Extension-DCH-MessageEventType-1">
					<valueCodeableConcept>
						<coding>
							<system value="https://fhir.nhs.uk/STU3/CodeSystem/DCH-MessageEventType-1"/>
							<code value="new"/>
							<display value="New event message"/>
						</coding>
					</valueCodeableConcept>
				</extension>
				<event>
					<system value="https://fhir.nhs.uk/STU3/CodeSystem/DCH-ChildHealthEventType-1"/>
					<code value="CH030"/>
					<display value="Social Context Household"/>
				</event>
				<timestamp value="2017-11-01T15:00:00+00:00"/>
				<source>
					<endpoint value="urn:nhs-uk:addressing:ods:RX3QJ"/>
				</source>
				<responsible>
					<reference value="urn:uuid:3ff6d789-af64-4d9c-aa1d-0087d29e9e1c"/>
					<display value="DURHAM SOCIAL SERVICES"/>
				</responsible>
				<focus>
					<reference value="urn:uuid:b6c9ce9b-4092-448b-8fc0-287cd26cec4b"/>
				</focus>
			</MessageHeader>
		</resource>
	</entry>
	
	<!--Responsible org-->
	<entry>
		<fullUrl value="urn:uuid:48833cb6-a2d5-4364-9b08-7d2ef6dacffb"/>
		<resource>
			<Organization>
				<id value="48833cb6-a2d5-4364-9b08-7d2ef6dacffb"/>
				<meta>
					<profile value="https://fhir.nhs.uk/STU3/StructureDefinition/CareConnect-DCH-Organization-1"/>
				</meta>
				<identifier>
					<system value="https://fhir.nhs.uk/Id/ods-organization-code"/>
					<value value="RX3QJ"/>
				</identifier>
				<name value="DURHAM SOCIAL SERVICES"/>
				<address>
					<line value="PRIORY HOUSE"/>
					<line value="ABBEY ROAD"/>
					<city value="PITY ME"/>
					<district value="COUNTY DURHAM"/>
					<postalCode value="DH1 5RR"/>
				</address>
			</Organization>
		</resource>
	</entry>
	
	<!--Healthcare service used e.g GP, trust, etc..-->
	<entry>
		<fullUrl value="urn:uuid:5a293df7-b22f-41b6-8bf1-44248ea59edb"/>
		<resource>
			<HealthcareService>
				<id value="5a293df7-b22f-41b6-8bf1-44248ea59edb"/>
				<meta>
					<profile value="https://fhir.nhs.uk/STU3/StructureDefinition/EMS-HealthcareService-1"/>
				</meta>
				<identifier>
					<system value="urn:ietf:rfc:3986"/>
					<value value="2db9a96b-393f-4817-868f-3e064296f1f9"/>
				</identifier>
				<providedBy>
					<reference value="urn:uuid:3ff6d789-af64-4d9c-aa1d-0087d29e9e1c"/>
					<display value="DURHAM SOCIAL SERVICES"/>
				</providedBy>
				<type>
					<coding>
						<system value="https://fhir.nhs.uk/STU3/CodeSystem/DCH-ProfessionalType-1"/>
						<code value="C07"/>
						<display value="Social Worker"/>
					</coding>
				</type>
			</HealthcareService>
		</resource>
	</entry>
	
	<!-- Patient-->
	<entry>
		<fullUrl value="urn:uuid:7368c5fe-bbb4-4e9c-a585-234e06b84e82"/>
		<resource>
			<Patient>
				<id value="7368c5fe-bbb4-4e9c-a585-234e06b84e82"/>
				<meta>
					<profile value="https://fhir.nhs.uk/STU3/StructureDefinition/CareConnect-DCH-Baby-Patient-1"/>
				</meta>
				<identifier>
					<extension url="https://fhir.nhs.uk/STU3/StructureDefinition/Extension-CareConnect-NHSNumberVerificationStatus-1">
						<valueCodeableConcept>
							<coding>
								<system value="https://fhir.nhs.uk/STU3/CareConnect-DCH-NHSNumberVerificationStatus-1"/>
								<code value="01"/>
								<display value="Number present and verified"/>
							</coding>
						</valueCodeableConcept>
					</extension>
					<system value="https://fhir.nhs.uk/Id/nhs-number"/>
					<value value="9912003777"/>
				</identifier>
				<identifier>
					<system value="https://fhir.nhs.uk/Id/local-patient-identifier"/>
					<value value="123456"/>
				</identifier>
				<name>
					<family value="Dawkins"/>
					<given value="Jack"/>
				</name>
				<birthDate value="1983-12-12">
					<extension url="http://hl7.org/fhir/StructureDefinition/patient-birthTime">
						<valueDateTime value="1983-12-12T20:12:00+00:00"/>
					</extension>
				</birthDate>
				<address>
					<use value="home"/>
					<line value="4 Sandmoor Drive"/>
					<city value="DURHAM"/>
					<postalCode value="DH1 2TF"/>
				</address>
			</Patient>
		</resource>
	</entry>

<!--Social Context Household-->
	<entry>
		<fullUrl value="urn:uuid:9fa0541c-67a2-4946-a7e3-ef3c4a8991f1"/>
		<resource>
			<QuestionnaireResponse>
			<id value="9fa0541c-67a2-4946-a7e3-ef3c4a8991f1"/>
			<meta>
				<profile value="https://fhir.nhs.uk/STU3/StructureDefinition/DCH-SocialContextHousehold-QuestionnaireResponse-1"/>
			</meta>
			<identifier>
				<system value="urn:ietf:rfc:3986"/>
				<value value="2d80c64f-9f4a-4786-b5b3-397612bca986"/>
			</identifier>
			<status value="completed"/>
			<subject>
				<reference value="7368c5fe-bbb4-4e9c-a585-234e06b84e82"/>
			</subject>
			<context>
				<reference value="b6c9ce9b-4092-448b-8fc0-287cd26cec4b"/>
			</context>
			<item>
				<linkId value="educationalEstablishmentType"/>
				<text value="Type of Educational establishment"/>
				<answer>
					<valueCoding>
						<system value="https://fhir.nhs.uk/STU3/CodeSystem/DCH-EducationLevel-1"/>
						<code value="Level 7"/>
						<display value="Master's degree"/>
					</valueCoding>
				</answer>
			</item>
			<item>
				<linkId value="householdSmokingStatus"/>
				<text value="Household smoking status"/>
				<answer>
					<valueCoding>
						<system value="http://snomed.info/sct"/>
						<code value="94151000119101"/>
						<display value="Smoker in household"/>
					</valueCoding>
				</answer>
			</item>
			<item>
				<linkId value="householdSubstanceStatus"/>
				<text value="Household substance status"/>
				<answer>
					<valueCoding>
						<system value="http://snomed.info/sct"/>
						<code value="New coded needed"/>
						<display value="New coded needed"/>
					</valueCoding>
				</answer>
			</item>
			<item>
				<linkId value="householdAlcoholDrinkingStatus"/>
				<text value="Household alcohol drinking status"/>
				<answer>
					<valueString value="No concerns around the consumption of alcohol"/>
				</answer>
			</item>
			<item>
				<linkId value="employmentStatusMother"/>
				<text value="Employment status (Mother)"/>
				<answer>
					<valueCoding>
						<system value="https://fhir.nhs.uk/STU3/CodeSystem/DCH-EmploymentStatus-1"/>
						<code value="1"/>
						<display value="Employed"/>
					</valueCoding>
				</answer>
			</item>
			<item>
				<linkId value="occupationMother"/>
				<text value="Mother's Occupation"/>
				<answer>
					<valueString value="Accountant"/>
				</answer>
			</item>
			<item>
				<linkId value="employmentStatusFather"/>
				<text value="Employment status (Father)"/>
				<answer>
					<valueCoding>
						<system value="https://fhir.nhs.uk/STU3/CodeSystem/DCH-EmploymentStatus-1"/>
						<code value="1"/>
						<display value="Employed"/>
					</valueCoding>
				</answer>
			</item>
			<item>
				<linkId value="occupationFather"/>
				<text value="Father's Occupation"/>
				<answer>
					<valueString value="Business Analyst"/>
				</answer>
			</item>
			<item>
				<linkId value="accommodationStatus"/>
				<text value="Accommodation status"/>
				<answer>
					<valueCoding>
						<system value="https://fhir.nhs.uk/STU3/CodeSystem/DCH-AccommodationStatus-1"/>
						<code value="MA01"/>
						<display value="Owner occupier"/>
					</valueCoding>
				</answer>
			</item>
			</QuestionnaireResponse>			
		</resource>
	</entry>
	
	<!--Social Context Household Encounter details-->
	<entry>
		<fullUrl value="urn:uuid:b6c9ce9b-4092-448b-8fc0-287cd26cec4b"/>
		<resource>
			<Encounter>
				<id value="b6c9ce9b-4092-448b-8fc0-287cd26cec4b"/>
				<meta>
					<profile value="https://fhir.nhs.uk/StructureDefinition/CareConnect-DCH-DCH-Encounter-1"/>
				</meta>
				<identifier>
					<system value="urn:ietf:rfc:3986"/>
					<value value="92c72a88-3e77-46e1-9453-da4ecc780575"/>
				</identifier>
				<status value="finished"/>
				<subject>
					<reference value="urn:uuid:7368c5fe-bbb4-4e9c-a585-234e06b84e82"/>
					<display value="DAWKINS, Jack"/>
				</subject>
				<period>
					<start value="2012-01-29T09:00:00"/>
				</period>
				<location>
					<location>
						<reference value="e3177167-40fc-4f1a-80f2-a2f17f18fde7"/>
						<display value="DURHAM SOCIAL SERVICES"/>
					</location>
				</location>
				<serviceProvider>
					<reference value="urn:uuid:e3177167-40fc-4f1a-80f2-a2f17f18fde7"/>
					<display value="DURHAM SOCIAL SERVICES"/>
				</serviceProvider>
			</Encounter>
		</resource>
	</entry>
	
	<!--Location where event took place-->
	<entry>
		<fullUrl value="urn:uuid:e3177167-40fc-4f1a-80f2-a2f17f18fde7"/>
		<resource>
			<Location>
				<id value="e3177167-40fc-4f1a-80f2-a2f17f18fde7"/>
				<meta>
					<profile value="https://fhir.nhs.uk/StructureDefinition/CareConnect-DCH-DCH-Location-1"/>
				</meta>
				<identifier>
					<system value="https://fhir.nhs.uk/Id/ods-site-code"/>
					<value value="RX3QJ"/>
				</identifier>
				<name value="DURHAM SOCIAL SERVICES"/>
			</Location>
		</resource>
	</entry>
	
</Bundle>
