{
  "resourceType": "Bundle",
  "id": "f14bbabb-0592-4b58-96b1-93dbb6631106",
  "meta": {
    "profile": [
      "https://fhir.nhs.uk/STU3/StructureDefinition/DCH-Bundle-1"
    ]
  },
  "type": "message",
  "entry": [
    {
      "fullUrl": "urn:uuid:b9c63b5e-a88e-47d3-9d45-081ebe9e48b5",
      "resource": {
        "resourceType": "MessageHeader",
        "id": "b9c63b5e-a88e-47d3-9d45-081ebe9e48b5",
        "meta": {
          "profile": [
            "https://fhir.nhs.uk/STU3/StructureDefinition/DCH-MessageHeader-1"
          ]
        },
        "extension": [
          {
            "url": "https://fhir.nhs.uk/STU3/StructureDefinition/Extension-DCH-MessageEventType-1",
            "valueCodeableConcept": {
              "coding": [
                {
                  "system": "https://fhir.nhs.uk/STU3/CodeSystem/DCH-MessageEventType-1",
                  "code": "new",
                  "display": "New event message"
                }
              ]
            }
          }
        ],
        "event": {
          "system": "https://fhir.nhs.uk/STU3/CodeSystem/DCH-ChildHealthEventType-1",
          "code": "CH002",
          "display": "Admission Details"
        },
        "timestamp": "2017-11-01T15:00:00+00:00",
        "source": {
          "endpoint": "urn:nhs-uk:addressing:ods:RX3EP"
        },
        "responsible": {
          "reference": "urn:uuid:e04e172e-db43-4ff3-a30a-9d574f693d96",
          "display": "UNIVERSITY HOSPITAL OF NORTH DURHAM"
        },
        "focus": [
          {
            "reference": "urn:uuid:58df44c5-2b01-4425-bd9a-985ac73152d0"
          }
        ]
      }
    },
    {
      "fullUrl": "urn:uuid:e04e172e-db43-4ff3-a30a-9d574f693d96",
      "resource": {
        "resourceType": "Organization",
        "id": "e04e172e-db43-4ff3-a30a-9d574f693d96",
        "meta": {
          "profile": [
            "https://fhir.nhs.uk/STU3/StructureDefinition/CareConnect-DCH-Organization-1"
          ]
        },
        "identifier": [
          {
            "system": "https://fhir.nhs.uk/Id/ods-organization-code",
            "value": "RX3EP"
          }
        ],
        "name": "UNIVERSITY HOSPITAL OF NORTH DURHAM",
        "address": [
          {
            "line": [
              "NORTH ROAD"
            ],
            "city": "DURHAM",
            "district": "COUNTY DURHAM",
            "postalCode": "DH1 5TW"
          }
        ]
      }
    },
    {
      "fullUrl": "urn:uuid:aed99abc-59b8-48c3-a81e-4fa4ff6ed4ca",
      "resource": {
        "resourceType": "HealthcareService",
        "id": "aed99abc-59b8-48c3-a81e-4fa4ff6ed4ca",
        "meta": {
          "profile": [
            "https://fhir.nhs.uk/STU3/StructureDefinition/DCH-HealthcareService-1"
          ]
        },
        "identifier": [
          {
            "system": "urn:ietf:rfc:3986",
            "value": "2db9a96b-393f-4817-868f-3e064296f1f9"
          }
        ],
        "providedBy": {
          "reference": "urn:uuid:e04e172e-db43-4ff3-a30a-9d574f693d96",
          "display": "UNIVERSITY HOSPITAL OF DURHAM "
        },
        "specialty": [
          {
            "coding": [
              {
                "system": "https://fhir.nhs.uk/STU3/CodeSystem/DCH-Specialty-1",
                "code": "999",
                "display": "ADMINISTRATION"
              }
            ]
          }
        ],
        "location": [
          {
            "reference": "urn:uuid:30f11523-4d42-4853-b060-896686e2b6c7"
          }
        ],
        "telecom": [
          {
            "system": "phone",
            "value": "0191 1231234"
          }
        ]
      }
    },
    {
      "fullUrl": "urn:uuid:16fc5e15-2ce4-40c2-ac85-6ed7764dac9f",
      "resource": {
        "resourceType": "Patient",
        "id": "16fc5e15-2ce4-40c2-ac85-6ed7764dac9f",
        "meta": {
          "profile": [
            "https://fhir.nhs.uk/STU3/StructureDefinition/CareConnect-DCH-Mother-Patient-1"
          ]
        },
        "identifier": [
          {
            "extension": [
              {
                "url": "https://fhir.hl7.org.uk/STU3/StructureDefinition/Extension-CareConnect-NHSNumberVerificationStatus-1",
                "valueCodeableConcept": {
                  "coding": [
                    {
                      "system": "https://fhir.hl7.org.uk/STU3/CodeSystem/CareConnect-NHSNumberVerificationStatus-1",
                      "code": "01",
                      "display": "Number present and verified"
                    }
                  ]
                }
              }
            ],
            "system": "https://fhir.nhs.uk/Id/nhs-number",
            "value": "9912003777"
          }
        ],
        "name": [
          {
            "use": "official",
            "family": "Dawkins",
            "given": [
              "Sally"
            ]
          }
        ],
        "birthDate": "1983-12-12",
        "_birthDate": {
          "extension": [
            {
              "url": "http://hl7.org/fhir/StructureDefinition/patient-birthTime",
              "valueDateTime": "1983-12-12T20:12:00+00:00"
            }
          ]
        },
        "address": [
          {
            "use": "home",
            "line": [
              "4 Sandmoor Drive"
            ],
            "city": "DURHAM",
            "postalCode": "DH1 2TF"
          }
        ]
      }
    },
    {
      "fullUrl": "urn:uuid:58df44c5-2b01-4425-bd9a-985ac73152d0",
      "resource": {
        "resourceType": "Encounter",
        "id": "58df44c5-2b01-4425-bd9a-985ac73152d0",
        "meta": {
          "profile": [
            "https://fhir.nhs.uk/STU3/StructureDefinition/CareConnect-DCH-Encounter-1"
          ]
        },
        "identifier": [
          {
            "system": "urn:ietf:rfc:3986",
            "value": "ff99b376-1c33-45c1-b125-6bada923f439"
          }
        ],
        "status": "finished",
        "type": [
          {
            "coding": [
              {
                "system": "https://fhir.nhs.uk/STU3/CodeSystem/DCH-ChildHealthEncounterType-1",
                "code": "003",
                "display": "Birth"
              }
            ]
          }
        ],
        "subject": {
          "reference": "urn:uuid:16fc5e15-2ce4-40c2-ac85-6ed7764dac9f",
          "display": "DAWKINS, Sally"
        },
        "period": {
          "start": "2018-01-29",
          "end": "2018-02-02"
        },
        "location": [
          {
            "location": {
              "reference": "urn:uuid:30f11523-4d42-4853-b060-896686e2b6c7",
              "display": "UNIVERSITY HOSPITAL OF NORTH DURHAM"
            }
          }
        ],
        "serviceProvider": {
          "reference": "urn:uuid:e04e172e-db43-4ff3-a30a-9d574f693d96",
          "display": "UNIVERSITY HOSPITAL OF NORTH DURHAM"
        }
      }
    },
    {
      "fullUrl": "urn:uuid:3ce8fdf8-63fe-4e34-b42f-283263e3710b",
      "resource": {
        "resourceType": "Practitioner",
        "id": "3ce8fdf8-63fe-4e34-b42f-283263e3710b",
        "meta": {
          "profile": [
            "https://fhir.nhs.uk/STU3/StructureDefinition/CareConnect-DCH-Practitioner-1"
          ]
        },
        "identifier": [
          {
            "system": "https://fhir.nhs.uk/Id/sds-role-profile-id",
            "value": "PT2469"
          }
        ],
        "name": [
          {
            "family": "Bashir",
            "given": [
              "Julian"
            ],
            "prefix": [
              "Dr."
            ]
          }
        ]
      }
    },
    {
      "fullUrl": "urn:uuid:b7e3cc3a-9120-49fe-801c-2793b80ca922",
      "resource": {
        "resourceType": "PractitionerRole",
        "id": "b7e3cc3a-9120-49fe-801c-2793b80ca922",
        "meta": {
          "profile": [
            "https://fhir.nhs.uk/STU3/StructureDefinition/CareConnect-DCH-PractitionerRole-1"
          ]
        },
        "identifier": [
          {
            "system": "https://fhir.nhs.uk/Id/sds-role-profile-id",
            "value": "PT2468"
          }
        ],
        "practitioner": {
          "reference": "urn:uuid:3ce8fdf8-63fe-4e34-b42f-283263e3710b"
        },
        "organization": {
          "reference": "urn:uuid:e04e172e-db43-4ff3-a30a-9d574f693d96"
        }
      }
    },
    {
      "fullUrl": "urn:uuid:30f11523-4d42-4853-b060-896686e2b6c7",
      "resource": {
        "resourceType": "Location",
        "id": "30f11523-4d42-4853-b060-896686e2b6c7",
        "meta": {
          "profile": [
            "https://fhir.nhs.uk/STU3/StructureDefinition/CareConnect-DCH-Location-1"
          ]
        },
        "identifier": [
          {
            "system": "https://fhir.nhs.uk/Id/ods-site-code",
            "value": "RX3EP"
          }
        ],
        "name": "UNIVERSITY HOSPITAL OF NORTH DURHAM"
      }
    }
  ]
}