<?xml version="1.0" encoding="UTF-8"?>
<!--This example message is provided for illustrative purposes only. It has had no clinical validation. Where there are conflicts with the written message specification or schema, the specification or schema shall be considered to take precedence-->
<!--Jack Dawkins birth details-->
<Bundle xmlns="http://hl7.org/fhir" xmlns:xsi="http://www.w3.org/2001/XMLSchema-instance" xsi:schemaLocation="http://hl7.org/fhir file:///C:/stu3/bundle.xsd">
	<id value="97be8432-5a9a-4c71-a083-b337323b8d6d"/>
	<meta>
		<profile value="https://fhir.nhs.uk/StructureDefinition/DCH-Bundle-1"/>
	</meta>
	<type value="message"/>
		<entry>
		<fullUrl value="urn:uuid:9d2e2cd9-ffe1-49c7-be43-f36e30564d3f"/>
		<resource>
			<MessageHeader>
				<id value="9d2e2cd9-ffe1-49c7-be43-f36e30564d3f"/>
				<meta>
					<profile value="https://fhir.nhs.uk/STU3/StructureDefinition/DCH-MessageHeader-1"/>
				</meta>
				<extension url="https://fhir.nhs.uk/STU3/StructureDefinition/Extension-DCH-MessageEventType-1">
					<valueCodeableConcept>
						<coding>
							<system value="https://fhir.nhs.uk/STU3/CodeSystem/DCH-MessageEventType-1"/>
							<code value="new"/>
							<display value="New event message"/>
						</coding>
					</valueCodeableConcept>
				</extension>
				<event>
					<system value="https://fhir.nhs.uk/STU3/CodeSystem/DCH-ChildHealthEventType-1"/>
					<code value="CH024"/>
					<display value="Physical Examination"/>
				</event>
				<timestamp value="2017-11-01T15:00:00+00:00"/>
				<source>
					<endpoint value="urn:nhs-uk:addressing:ods:RX3EP"/>
				</source>
				<responsible>
					<reference value="urn:uuid:33a33b58-648a-4453-b981-e21ea9ebc6ea"/>
					<display value="UNIVERSITY HOSPITAL OF NORTH DURHAM"/>
				</responsible>
				<focus>
					<reference value="urn:uuid:1bcb0151-4ddf-4084-9c06-e8a31fdcf25b"/>
				</focus>
			</MessageHeader>
		</resource>
	</entry>
	
<!--Responsible for message content (Birth)-->
	<entry>
		<fullUrl value="urn:uuid:33a33b58-648a-4453-b981-e21ea9ebc6ea"/>
		<resource>
			<Organization>
				<id value="33a33b58-648a-4453-b981-e21ea9ebc6ea"/>
				<meta>
					<profile value="https://fhir.nhs.uk/STU3/StructureDefinition/CareConnect-Organization-1"/>
				</meta>
				<identifier>
					<system value="https://fhir.nhs.uk/Id/ods-organization-code"/>
					<value value="RX3EP"/>
				</identifier>
				<name value="UNIVERSITY HOSPITAL OF NORTH DURHAM"/>
				<address>
					<line value="NORTH ROAD"/>
					<city value="DURHAM"/>
					<district value="COUNTY DURHAM"/>
					<postalCode value="DH1 5TW"/>
				</address>
			</Organization>
		</resource>
	</entry>
	
	<!--Healthcare service used e.g GP, trust, etc..-->
	<entry>
		<fullUrl value="urn:uuid:5a293df7-b22f-41b6-8bf1-44248ea59edb"/>
		<resource>
			<HealthcareService>
				<id value="2db9a96b-393f-4817-868f-3e064296f1f9"/>
				<meta>
					<profile value="https://fhir.nhs.uk/STU3/StructureDefinition/DCH-HealthcareService-1"/>
				</meta>
				<identifier>
					<system value="https://tools.ietf.org/html/rfc4122"/>
					<value value="2db9a96b-393f-4817-868f-3e064296f1f9"/>
				</identifier>
				<providedBy>
					<reference value="urn:uuid:33a33b58-648a-4453-b981-e21ea9ebc6ea"/>
					<display value="UNIVERSITY HOSPITAL OF DURHAM "/>
				</providedBy>
				<specialty>
					<coding>
						<system value="https://fhir.nhs.uk/STU3/CodeSystem/DCH-Specialty-1"/>
						<code value="560"/>
						<display value="MIDWIFE EPISODE"/>
					</coding>
				</specialty>
				<location>
					<reference value="urn:uuid:e3177167-40fc-4f1a-80f2-a2f17f18fde7"/>
				</location>
			</HealthcareService>
		</resource>
	</entry>
	
<!--Baby Patient-->
	<entry>
		<fullUrl value="urn:uuid:7368c5fe-bbb4-4e9c-a585-234e06b84e82"/>
		<resource>
			<Patient>
				<id value="7368c5fe-bbb4-4e9c-a585-234e06b84e82"/>
				<meta>
					<profile value="https://fhir.hl7.org.uk/STU3/StructureDefinition/CareConnect-Baby-Patient-1"/>
				</meta>
				<identifier>
					<extension url="https://fhir.hl7.org.uk/STU3/StructureDefinition/Extension-CareConnect-NHSNumberVerificationStatus-1">
						<valueCodeableConcept>
							<coding>
								<system value="https://fhir.hl7.org.uk/STU3/CareConnect-NHSNumberVerificationStatus-1"/>
								<code value="01"/>
								<display value="Number present and verified"/>
							</coding>
						</valueCodeableConcept>
					</extension>
					<extension url="http://hl7.org/fhir/StructureDefinition/birthPlace">
						<valueAddress>
							<city value="LEEDS"/>
							<district value="West Yorkshire"/>
							<country value="UK"/>
						</valueAddress>
					</extension>
					<system value="https://fhir.nhs.uk/Id/nhs-number"/>
					<value value="9912003888"/>
				</identifier>
				<identifier>
					<system value="https://fhir.nhs.uk/Id/local-patient-identifier"/>
					<value value="123456"/>
				</identifier>
				<name>
					<family value="DAWKINS"/>
					<given value="Jack"/>
				</name>
				<birthDate value="2017-10-02">
					<extension url="http://hl7.org/fhir/StructureDefinition/patient-birthTime">
						<valueDateTime value="2017-10-02T20:12:00+00:00"/>
					</extension>
				</birthDate>
				<address>
					<use value="home"/>
					<line value="4 Sandmoor Drive"/>
					<city value="LEEDS"/>
					<postalCode value="LS17 7DF"/>
				</address>
				<multipleBirthInteger value="1"/>
			</Patient>
		</resource>
	</entry>
	
	<!--Examination Hips-->
		<entry>
		<fullUrl value="urn:uuid:c55d58e2-9fcd-4f12-ad8c-21b1eb0afbf6"/>
		<resource>
			<Procedure>
			<id value="c55d58e2-9fcd-4f12-ad8c-21b1eb0afbf6"/>
			<meta>
				<profile value="https://fhir.nhs.uk/STU3/StructureDefinition/CareConnect-DCH-HearingTest-Procedure-1"/>
			</meta>
			<identifier>
				<system value=""/>
				<value value="8154d55f-2966-4f0c-947a-41aee802cf2c"/>
			</identifier>
				<status value="completed"/>
					<code>
						<coding>
							<system value="http://snomed.info/sct"/>
							<code value="985531000000102"/>
							<display value="Confirm use of code to represent physical examination procedure is acceptable"/>
						</coding>
					</code>
				<subject>
					<reference value="urn:uuid:7368c5fe-bbb4-4e9c-a585-234e06b84e82"/>
				</subject>
				<context>
					<reference value="urn:uuid:a8ca9fe6-72aa-11e7-8cf7-a6006ad3dba0"/>
				</context>
				<performer>
					<actor>
						<reference value="urn:uuid:e9dbf8e8-5bdc-11e7-907b-a6006ad3dba0"/>
					</actor>
				</performer>
				<outcome>
					<coding>
						<system value="https://fhir.nhs.uk/STU3/ValueSet/DCH-OutcomeStatusHips-1"/>
						<code value="985701000000100"/>
						<display value="Newborn and Infant Physical Examination Screening Programme, hip examination done, no abnormality and no risk factor"/>
					</coding>
				</outcome>
			</Procedure>
		</resource>
	</entry>
		<!--Examination Eyes-->
		<entry>
		<fullUrl value="urn:uuid:c55d58e2-9fcd-4f12-ad8c-21b1eb0afbf6"/>
		<resource>
			<Procedure>
			<id value="c55d58e2-9fcd-4f12-ad8c-21b1eb0afbf6"/>
			<meta>
				<profile value="https://fhir.nhs.uk/STU3/StructureDefinition/CareConnect-DCH-HearingTest-Procedure-1"/>
			</meta>
			<identifier>
				<system value=""/>
				<value value="8154d55f-2966-4f0c-947a-41aee802cf2c"/>
			</identifier>
				<status value="completed"/>
					<code>
						<coding>
							<system value="http://snomed.info/sct"/>
							<code value="988361000000105"/>
							<display value="Newborn and Infant Physical Examination Screening Programme, eye examination"/>
						</coding>
					</code>
				<subject>
					<reference value="urn:uuid:7368c5fe-bbb4-4e9c-a585-234e06b84e82"/>
				</subject>
				<context>
					<reference value="urn:uuid:a8ca9fe6-72aa-11e7-8cf7-a6006ad3dba0"/>
				</context>
				<performer>
					<actor>
						<reference value="urn:uuid:e9dbf8e8-5bdc-11e7-907b-a6006ad3dba0"/>
					</actor>
				</performer>
				<outcome>
					<coding>
						<system value="https://fhir.nhs.uk/STU3/ValueSet/DCH-OutcomeStatusEyes-1"/>
						<code value="989071000000108"/>
						<display value="Newborn and Infant Physical Examination Screening Programme, eye examination done, no abnormality and no risk factor"/>
					</coding>
				</outcome>
			</Procedure>
		</resource>
	</entry>
		<!--Examination Testes-->
		<entry>
		<fullUrl value="urn:uuid:c55d58e2-9fcd-4f12-ad8c-21b1eb0afbf6"/>
		<resource>
			<Procedure>
			<id value="c55d58e2-9fcd-4f12-ad8c-21b1eb0afbf6"/>
			<meta>
				<profile value="https://fhir.nhs.uk/STU3/StructureDefinition/CareConnect-DCH-HearingTest-Procedure-1"/>
			</meta>
			<identifier>
				<system value=""/>
				<value value="8154d55f-2966-4f0c-947a-41aee802cf2c"/>
			</identifier>
				<status value="completed"/>
					<code>
						<coding>
							<system value="http://snomed.info/sct"/>
							<code value="988371000000103"/>
							<display value="Newborn and Infant Physical Examination Screening Programme, testis examination"/>
						</coding>
					</code>
				<subject>
					<reference value="urn:uuid:7368c5fe-bbb4-4e9c-a585-234e06b84e82"/>
				</subject>
				<context>
					<reference value="urn:uuid:a8ca9fe6-72aa-11e7-8cf7-a6006ad3dba0"/>
				</context>
				<performer>
					<actor>
						<reference value="urn:uuid:e9dbf8e8-5bdc-11e7-907b-a6006ad3dba0"/>
					</actor>
				</performer>
				<outcome>
					<coding>
						<system value="https://fhir.nhs.uk/STU3/ValueSet/DCH-OutcomeStatusTestes-1"/>
						<code value="988931000000101"/>
						<display value="Newborn and Infant Physical Examination Screening Programme, testis examination done, no abnormality"/>
					</coding>
				</outcome>
			</Procedure>
		</resource>
	</entry>
	
		<!--Examination Heart-->
		<entry>
		<fullUrl value="urn:uuid:c55d58e2-9fcd-4f12-ad8c-21b1eb0afbf6"/>
		<resource>
			<Procedure>
			<id value="c55d58e2-9fcd-4f12-ad8c-21b1eb0afbf6"/>
			<meta>
				<profile value="https://fhir.nhs.uk/STU3/StructureDefinition/CareConnect-DCH-HearingTest-Procedure-1"/>
			</meta>
			<identifier>
				<system value=""/>
				<value value="8154d55f-2966-4f0c-947a-41aee802cf2c"/>
			</identifier>
				<status value="completed"/>
					<code>
						<coding>
							<system value="http://snomed.info/sct"/>
							<code value="988371000000103"/>
							<display value="Newborn and Infant Physical Examination Screening Programme, heart examination"/>
						</coding>
					</code>
				<subject>
					<reference value="urn:uuid:7368c5fe-bbb4-4e9c-a585-234e06b84e82"/>
				</subject>
				<context>
					<reference value="urn:uuid:a8ca9fe6-72aa-11e7-8cf7-a6006ad3dba0"/>
				</context>
				<performer>
					<actor>
						<reference value="urn:uuid:e9dbf8e8-5bdc-11e7-907b-a6006ad3dba0"/>
					</actor>
				</performer>
				<outcome>
					<coding>
						<system value="http://snomed.info/sct"/>
						<code value="988511000000100"/>
						<display value="Newborn and Infant Physical Examination Screening Programme, heart examination done, no abnormality and no risk factor"/>
					</coding>
				</outcome>
			</Procedure>
		</resource>
	</entry>
<!--Birth Encounter details-->
	<entry>
		<fullUrl value="urn:uuid:1bcb0151-4ddf-4084-9c06-e8a31fdcf25b"/>
		<resource>
			<Encounter>
				<id value="1bcb0151-4ddf-4084-9c06-e8a31fdcf25b"/>
				<meta>
					<profile value="https://fhir.nhs.uk/StructureDefinition/CareConnect-DCH-Encounter-1"/>
				</meta>
				<identifier>
					<system value="https://tools.ietf.org/html/rfc4122"/>
					<value value="af71a415-ae02-4159-914b-8b78c499fb1d"/>
				</identifier>
				<status value="finished"/>
				<subject>
					<reference value="urn:uuid:7368c5fe-bbb4-4e9c-a585-234e06b84e82"/>
					<display value="DAWKINS, Jack"/>
				</subject>
				<period>
					<start value="2018-01-29T09:00:00"/>
				</period>
				<location>
					<location>
						<reference value="urn:uuid:02692f55-56cf-4dda-8ef5-e9ec13f6bd99"/>
					</location>
				</location>
				<serviceProvider>
					<reference value="urn:uuid:5a293df7-b22f-41b6-8bf1-44248ea59edb"/>
				</serviceProvider>
			</Encounter>
		</resource>
	</entry>
	

		
<!--Practitioner from Encounter-->
	<entry>
		<fullUrl value="urn:uuid:e9dbf8e8-5bdc-11e7-907b-a6006ad3dba0"/>
		<resource>
			<Practitioner>
				<id value="e9dbf8e8-5bdc-11e7-907b-a6006ad3dba0"/>
				<meta>
					<profile value="https://fhir.hl7.org.uk/StructureDefinition/CareConnect-DCH-Practitioner-1"/>
				</meta>
				<identifier>
					<system value="https://fhir.nhs.uk/Id/sds-role-profile-id"/>
					<value value="PT2469"/>
				</identifier>
				<name>
					<family value="Bashir"/>
					<given value="Julian"/>
					<prefix value="Dr."/>
				</name>
			</Practitioner>
		</resource>
	</entry>
	
<!--Location where event took place (Maternity Site)-->
	<entry>
		<fullUrl value="urn:uuid:02692f55-56cf-4dda-8ef5-e9ec13f6bd99"/>
		<resource>
			<Location>
				<id value="02692f55-56cf-4dda-8ef5-e9ec13f6bd99"/>
				<meta>
					<profile value="https://fhir.hl7.org.uk/StructureDefinition/CareConnect-DCH-Location-1"/>
				</meta>
				<identifier>
					<system value="https://fhir.nhs.uk/Id/ods-site-code"/>
					<value value="RX3EP"/>
				</identifier>
			</Location>
		</resource>
	</entry>
	
</Bundle>
