<?xml version="1.0" encoding="UTF-8"?>
<!--This example message is provided for illustrative purposes only. It has had no clinical validation. Where there are conflicts with the written message specification or schema, the specification or schema shall be considered to take precedence-->
<Bundle xmlns="http://hl7.org/fhir">
	<id value="a8ca980c-72aa-11e7-8cf7-a6006ad3dba0"/>
	<meta>
		<profile value="https://fhir.nhs.uk/StructureDefinition/DCH-Bundle-1"/>
	</meta>
	<type value="message"/>
			<entry>
		<fullUrl value="urn:uuid:85c8a1c5-a8a1-41c9-bb99-20956fa66218"/>
		<resource>
			<MessageHeader>
				<id value="85c8a1c5-a8a1-41c9-bb99-20956fa66218"/>
				<meta>
					<profile value="https://fhir.nhs.uk/STU3/StructureDefinition/DCH-MessageHeader-1"/>
				</meta>
				<extension url="https://fhir.nhs.uk/STU3/StructureDefinition/Extension-DCH-MessageEventType-1">
					<valueCodeableConcept>
						<coding>
							<system value="https://fhir.nhs.uk/STU3/CodeSystem/DCH-MessageEventType-1"/>
							<code value="new"/>
							<display value="New event message"/>
						</coding>
					</valueCodeableConcept>
				</extension>
				<event>
					<system value="https://fhir.nhs.uk/STU3/CodeSystem/DCH-ChildHealthEventType-1"/>
					<code value="CH011"/>
					<display value="Emergency Care Attendance"/>
				</event>
				<timestamp value="2017-11-01T15:00:00+00:00"/>
					<source>
					<endpoint value="urn:nhs-uk:addressing:ods:RX3EP"/>
				</source>
				<responsible>
					<reference value="urn:uuid:33a33b58-648a-4453-b981-e21ea9ebc6ea"/>
					<display value="UNIVERSITY HOSPITAL OF NORTH DURHAM"/>
				</responsible>
				<focus>
					<reference value="urn:uuid:12779557-9033-4213-876f-69a670cdf35d"/>
				</focus>
			</MessageHeader>
		</resource>
	</entry>
	<!--Responsible for message content (Birth)-->
	<entry>
		<fullUrl value="urn:uuid:33a33b58-648a-4453-b981-e21ea9ebc6ea"/>
		<resource>
			<Organization>
				<id value="33a33b58-648a-4453-b981-e21ea9ebc6ea"/>
				<meta>
					<profile value="https://fhir.nhs.uk/STU3/StructureDefinition/CareConnect-DCH-Organization-1"/>
				</meta>
				<identifier>
					<system value="https://fhir.nhs.uk/Id/ods-organization-code"/>
					<value value="RX3EP"/>
				</identifier>
				<name value="UNIVERSITY HOSPITAL OF NORTH DURHAM"/>
				<address>
					<line value="NORTH ROAD"/>
					<city value="DURHAM"/>
					<district value="COUNTY DURHAM"/>
					<postalCode value="DH1 5TW"/>
				</address>
			</Organization>
		</resource>
	</entry>
	<!--Healthcare service used e.g GP, trust, etc..-->
	<entry>
		<fullUrl value="urn:uuid:5a293df7-b22f-41b6-8bf1-44248ea59edb"/>
		<resource>
			<HealthcareService>
				<id value="2db9a96b-393f-4817-868f-3e064296f1f9"/>
				<meta>
					<profile value="https://fhir.nhs.uk/STU3/StructureDefinition/DCH-HealthcareService-1"/>
				</meta>
				<identifier>
					<system value="urn:ietf:rfc:3986"/>
					<value value="2db9a96b-393f-4817-868f-3e064296f1f9"/>
				</identifier>
				<providedBy>
					<reference value="urn:uuid:3ff6d789-af64-4d9c-aa1d-0087d29e9e1c"/>
					<display value="UNIVERSITY HOSPITAL OF NORTH DURHAM"/>
				</providedBy>
				<type>
					<coding>
						<system value="https://fhir.nhs.uk/STU3/CodeSystem/DCH-ProfessionalType-1"/>
						<code value="M02"/>
						<display value="Consultant"/>
					</coding>
				</type>
				<specialty>
					<coding>
						<system value="https://fhir.nhs.uk/STU3/CodeSystem/DCH-Specialty-1"/>
						<code value="180"/>
						<display value="ACCIDENT &amp; EMERGENCY"/>
					</coding>
				</specialty>
				<location>
					<reference value="urn:uuid:e3177167-40fc-4f1a-80f2-a2f17f18fde7"/>
				</location>
				
			</HealthcareService>
		</resource>
	</entry>
	<!-- Patient-->
	<entry>
		<fullUrl value="urn:uuid:7368c5fe-bbb4-4e9c-a585-234e06b84e82"/>
		<resource>
			<Patient>
				<id value="7368c5fe-bbb4-4e9c-a585-234e06b84e82"/>
				<meta>
					<profile value="https://fhir.nhs.uk/STU3/StructureDefinition/CareConnect-DCH-Baby-Patient-1"/>
				</meta>
				<identifier>
					<extension url="https://fhir.nhs.uk/STU3/StructureDefinition/Extension-CareConnect-NHSNumberVerificationStatus-1">
						<valueCodeableConcept>
							<coding>
								<system value="https://fhir.nhs.uk/STU3/CareConnect-DCH-NHSNumberVerificationStatus-1"/>
								<code value="01"/>
								<display value="Number present and verified"/>
							</coding>
						</valueCodeableConcept>
					</extension>
					<extension url="http://hl7.org/fhir/StructureDefinition/birthPlace">
						<valueAddress>
							<city value="DURHAM"/>
							<district value="West Yorkshire"/>
							<country value="UK"/>
						</valueAddress>
					</extension>
					<system value="https://fhir.nhs.uk/Id/nhs-number"/>
					<value value="9912003888"/>
				</identifier>
				<identifier>
					<system value="https://fhir.nhs.uk/Id/local-patient-identifier"/>
					<value value="123456"/>
				</identifier>
				<name>
					<family value="DAWKINS"/>
					<given value="Jack"/>
				</name>
				<birthDate value="2017-10-02">
					<extension url="http://hl7.org/fhir/StructureDefinition/patient-birthTime">
						<valueDateTime value="2017-10-02T20:12:00+00:00"/>
					</extension>
				</birthDate>
				<address>
					<use value="home"/>
					<line value="4 Sandmoor Drive"/>
					<city value="DURHAM"/>
					<postalCode value="DH1 2TF"/>
				</address>
				<multipleBirthInteger value="1"/>
			</Patient>
		</resource>
	</entry>
	
	
	
<!--Emergency Care Investigation Procedure-->
	<entry>
		<fullUrl value="urn:uuid:1221e99b-7099-4313-b808-ec8a02687710"/>
		<resource>
			<Procedure>
			<meta>
				<profile value="https://fhir.nhs.uk/STU3/StructureDefinition/CareConnect-DCH-DCH-NewbornBloodSpotScreeningPKU-Procedure-1"/>
			</meta>
				<identifier>
					<system value="urn:ietf:rfc:3986"/>
					<value value="1221e99b-7099-4313-b808-ec8a02687710"/>
				</identifier>
				<status value="completed"/>
				<code>
					<coding>
						<system value="http://snomed.info/sct"/>
						<code value="29893006"/>
						<display value="Peak expiratory flow measurement"/>
					</coding>
				</code>
				<subject>
					<reference value="urn:uuid:7368c5fe-bbb4-4e9c-a585-234e06b84e82"/>
				</subject>
				<context>
					<reference value="urn:uuid:12779557-9033-4213-876f-69a670cdf35d"/>
				</context>
			</Procedure>
		</resource>
	</entry>
	
	<!-- Emergency Encounter details-->
	<entry>
		<fullUrl value="urn:uuid:12779557-9033-4213-876f-69a670cdf35d"/>
		<resource>
			<Encounter>
				<id value="12779557-9033-4213-876f-69a670cdf35d"/>
				<meta>
					<profile value="https://fhir.nhs.uk/StructureDefinition/CareConnect-DCH-DCH-Encounter-1"/>
				</meta>
				<extension url="https://fhir.nhs.net/STU3/StructureDefinition/Extension-CareConnect-DCH-EmergencyCareDischargeStatus-1">
					<valueCodeableConcept>
						<coding>
							<system value="http://snomed.info/sct"/>
							<code value="1066311000000101"/>
							<display value="Left care setting after initial assessment"/>
						</coding>
					</valueCodeableConcept>
				</extension>
				<identifier>
					<system value="urn:ietf:rfc:3986"/>
					<value value="a8ca9fe6-72aa-11e7-8cf7-a6006ad3dba0"/>
				</identifier>
				<status value="finished"/>
				<subject>
					<reference value="urn:uuid:7368c5fe-bbb4-4e9c-a585-234e06b84e82"/>
					<display value="DAWKINS, Jack"/>
				</subject>
				<period>
					<start value="2018-03-23T09:00:00"/>
					<end value="2018-03-23T15:00:00"/>
				</period>
				<reason>
					<coding>
						<system value="http://snomed.info/sct"/>
						<code value="50043002"/>
						<display value="Disorder of respiratory system"/>
					</coding>
				</reason>
				<hospitalization>
					<dischargeDisposition>
						<coding>
							<system value="http://snomed.info/sct"/>
							<code value="306689006"/>
							<display value="Discharge to home (procedure)"/>
						</coding>
					</dischargeDisposition>
				</hospitalization>
				<location>
					<location>
						<reference value="e3177167-40fc-4f1a-80f2-a2f17f18fde7"/>
						<display value="ACCIDENT &amp; EMERGENCY LGI"/>
					</location>
				</location>
			</Encounter>
		</resource>
	</entry>
	
<!-- Accompanied Person-->
		<entry>
			<resource>
				<RelatedPerson>
				<id value="d73b0bd6-375b-4167-aea6-b63c97f08ecc"/>
				<meta>
					<profile value="https://fhir.nhs.uk/STU3/StructureDefinition/DCH-RelatedPerson-1"/>
				</meta>
				<identifier>
					<system value="https://fhir.nhs.uk/Id/sds-role-profile-id"/>
					<value value="PT2468"/>
				</identifier>
				<patient>
					<reference value="urn:uuid:7368c5fe-bbb4-4e9c-a585-234e06b84e82"/>
				</patient>
				<relationship>
					<coding>
						<system value="https://fhir.nhs.uk/STU3/ValueSet/DCH-PersonRelationshipType-1"/>
						<code value="MTH"/>
						<display value="mother"/>
					</coding>
				</relationship>
				<name>
					<family value="Dawkins"/>
					<given value="Sally"/>
				</name>
				<gender value="female"/>
				<birthDate value="1973-12-12"/>
				</RelatedPerson>
			</resource>	
		</entry>
	
	<!--Location where event took place-->
	<entry>
		<fullUrl value="urn:uuid:e3177167-40fc-4f1a-80f2-a2f17f18fde7"/>
		<resource>
			<Location>
				<id value="e3177167-40fc-4f1a-80f2-a2f17f18fde7"/>
				<meta>
					<profile value="https://fhir.nhs.uk/StructureDefinition/CareConnect-DCH-DCH-Location-1"/>
				</meta>
				<identifier>
					<system value="https://fhir.nhs.uk/Id/ods-site-code"/>
					<value value="RX3EP"/>
				</identifier>
				<name value="UNIVERSITY HOSPITAL OF NORTH DURHAM"/>
			</Location>
		</resource>
	</entry>
	
	
</Bundle>
