<?xml version="1.0" encoding="UTF-8"?>
<!--This example message is provided for illustrative purposes only. It has had no clinical validation. Where there are conflicts with the written message specification or schema, the specification or schema shall be considered to take precedence-->
<Bundle xmlns="http://hl7.org/fhir" xmlns:xsi="http://www.w3.org/2001/XMLSchema-instance" xsi:schemaLocation="http://hl7.org/fhir file:///C:/stu3/bundle.xsd">
	<id value="443a4d20-4c32-4cef-944c-7a153896f6ac"/>
	<meta>
		<profile value="https://fhir.nhs.uk/StructureDefinition/DCH-Bundle-1"/>
	</meta>
	<type value="message"/>
		<entry>
		<fullUrl value="urn:uuid:9d2e2cd9-ffe1-49c7-be43-f36e30564d3f"/>
		<resource>
			<MessageHeader>
				<id value="9d2e2cd9-ffe1-49c7-be43-f36e30564d3f"/>
				<meta>
					<profile value="https://fhir.nhs.uk/STU3/StructureDefinition/DCH-MessageHeader-1"/>
				</meta>
				<extension url="https://fhir.nhs.uk/STU3/StructureDefinition/Extension-DCH-MessageEventType-1">
					<valueCodeableConcept>
						<coding>
							<system value="https://fhir.nhs.uk/STU3/CodeSystem/DCH-MessageEventType-1"/>
							<code value="new"/>
							<display value="New event message"/>
						</coding>
					</valueCodeableConcept>
				</extension>
				<event>
					<system value="https://fhir.nhs.uk/STU3/CodeSystem/DCH-ChildHealthEventType-1"/>
					<code value="CH035"/>
					<display value="Blood Spot Test Outcome"/>
				</event>
				<timestamp value="2017-11-01T15:00:00+00:00"/>
				<source>
					<endpoint value="urn:nhs-uk:addressing:ods:RX3EP"/>
				</source>
				<responsible>
					<reference value="urn:uuid:33a33b58-648a-4453-b981-e21ea9ebc6ea"/>
					<display value="UNIVERSITY HOSPITAL OF NORTH DURHAM"/>
				</responsible>
				<focus>
					<reference value="urn:uuid:1bcb0151-4ddf-4084-9c06-e8a31fdcf25b"/>
				</focus>
			</MessageHeader>
		</resource>
	</entry>
	
<!--Responsible Org Blood Spot-->
	<entry>
		<fullUrl value="urn:uuid:33a33b58-648a-4453-b981-e21ea9ebc6ea"/>
		<resource>
			<Organization>
				<id value="33a33b58-648a-4453-b981-e21ea9ebc6ea"/>
				<meta>
					<profile value="https://fhir.nhs.uk/STU3/StructureDefinition/CareConnect-Organization-1"/>
				</meta>
				<identifier>
					<system value="https://fhir.nhs.uk/Id/ods-organization-code"/>
					<value value="RR8"/>
				</identifier>
				<name value="UNIVERSITY HOSPITAL OF NORTH DURHAM"/>
				<address>
					<line value="NORTH ROAD"/>
					<city value="DURHAM"/>
					<district value="COUNTY DURHAM"/>
					<postalCode value="DH1 5TW"/>
				</address>
			</Organization>
		</resource>
	</entry>
	
	<!--Healthcare service used e.g GP, trust, etc..-->
	<entry>
		<fullUrl value="urn:uuid:5a293df7-b22f-41b6-8bf1-44248ea59edb"/>
		<resource>
			<HealthcareService>
				<id value="5a293df7-b22f-41b6-8bf1-44248ea59edb"/>
				<meta>
					<profile value="https://fhir.nhs.uk/STU3/StructureDefinition/DCH-HealthcareService-1"/>
				</meta>
				<identifier>
					<system value="urn:ietf:rfc:3986"/>
					<value value="2db9a96b-393f-4817-868f-3e064296f1f9"/>
				</identifier>
				<providedBy>
					<reference value="urn:uuid:33a33b58-648a-4453-b981-e21ea9ebc6ea"/>
					<display value="UNIVERSITY HOSPITAL OF NORTH DURHAM"/>
				</providedBy>
				<specialty>
					<coding>
						<system value="https://fhir.nhs.uk/STU3/CodeSystem/DCH-Specialty-1"/>
						<code value="560"/>
						<display value="MIDWIFE EPISODE"/>
					</coding>
				</specialty>
				<location>
					<reference value="urn:uuid:e3177167-40fc-4f1a-80f2-a2f17f18fde7"/>
				</location>
			</HealthcareService>
		</resource>
	</entry>
	
	<!-- Patient-->
	<entry>
		<fullUrl value="urn:uuid:7368c5fe-bbb4-4e9c-a585-234e06b84e82"/>
		<resource>
			<Patient>
				<id value="7368c5fe-bbb4-4e9c-a585-234e06b84e82"/>
				<meta>
					<profile value="https://fhir.hl7.org.uk/STU3/StructureDefinition/CareConnect-Baby-Patient-1"/>
				</meta>
				<identifier>
					<extension url="https://fhir.hl7.org.uk/STU3/StructureDefinition/Extension-CareConnect-NHSNumberVerificationStatus-1">
						<valueCodeableConcept>
							<coding>
								<system value="https://fhir.hl7.org.uk/STU3/CareConnect-NHSNumberVerificationStatus-1"/>
								<code value="01"/>
								<display value="Number present and verified"/>
							</coding>
						</valueCodeableConcept>
					</extension>
					<extension url="http://hl7.org/fhir/StructureDefinition/birthPlace">
						<valueAddress>
							<city value="DURHAM"/>
							<district value="West Yorkshire"/>
							<country value="UK"/>
						</valueAddress>
					</extension>
					<system value="https://fhir.nhs.uk/Id/nhs-number"/>
					<value value="9912003888"/>
				</identifier>
				<identifier>
					<system value="https://fhir.nhs.uk/Id/local-patient-identifier"/>
					<value value="123456"/>
				</identifier>
				<name>
					<family value="DAWKINS"/>
					<given value="Jack"/>
				</name>
				<birthDate value="2017-10-12">
					<extension url="http://hl7.org/fhir/StructureDefinition/patient-birthTime">
						<valueDateTime value="2017-10-02T20:12:00+00:00"/>
					</extension>
				</birthDate>
				<address>
					<use value="home"/>
					<line value="4 Sandmoor Drive"/>
					<city value="DURHAM"/>
					<postalCode value="DH1 2TF"/>
				</address>
				<multipleBirthInteger value="1"/>
			</Patient>
		</resource>
	</entry>
	
	<!--Blood Spot Test PKU Procedure-->
	<entry>
		<fullUrl value="urn:uuid:796a220c-7888-46ac-962e-46c971e1dbdf"/>
		<resource>
			<Procedure>
			<id value="796a220c-7888-46ac-962e-46c971e1dbdf"/>
			<meta>
				<profile value="https://fhir.nhs.uk/STU3/StructureDefinition/CareConnect-DCH-NewbornBloodSpotScreeningCF-Procedure-1"/>
			</meta>
				<identifier>
					<system value="urn:ietf:rfc:3986"/>
					<value value="79fac274-842b-478a-b5ae-684a5b1b51e9"/>
				</identifier>
				<status value="completed"/>
				<code>
					<coding>
						<system value="http://snomed.info/sct"/>
						<code value="314081000"/>
						<display value="Phenylketonuria screening test"/>
					</coding>
				</code>
				<subject>
					<reference value="urn:uuid:7368c5fe-bbb4-4e9c-a585-234e06b84e82"/>
				</subject>
				<context>
					<reference value="urn:uuid:1bcb0151-4ddf-4084-9c06-e8a31fdcf25b"/>
				</context>
				<outcome>
					<coding>
						<system value="http://snomed.info/sct"/>
						<code value="429106008"/>
						<display value="Condition not suspected"/>
					</coding>
				</outcome>
				<report>
					<reference value="urn:uuid:6686a40a-22bc-4396-a0f0-f134c894b01c"/>
				</report>
			</Procedure>
		</resource>
	</entry>
		

	<!--Blood Spot Test SCD Procedure-->
	<entry>
		<fullUrl value="urn:uuid:feeddff6-9eee-4856-8dc1-819bea6abbce"/>
		<resource>
			<Procedure>
			<id value="feeddff6-9eee-4856-8dc1-819bea6abbce"/>
			<meta>
				<profile value="https://fhir.nhs.uk/STU3/StructureDefinition/CareConnect-DCH-NewbornBloodSpotScreeningCF-Procedure-1"/>
			</meta>
				<identifier>
					<system value="urn:ietf:rfc:3986"/>
					<value value="b9820b82-6d26-49a2-a7ed-1822e6cca83d"/>
				</identifier>
				<status value="completed"/>
				<code>
					<coding>
						<system value="http://snomed.info/sct"/>
						<code value="314090007"/>
						<display value="Sickle cell disease screening test"/>
					</coding>
				</code>
				<subject>
					<reference value="urn:uuid:7368c5fe-bbb4-4e9c-a585-234e06b84e82"/>
				</subject>
				<context>
					<reference value="urn:uuid:1bcb0151-4ddf-4084-9c06-e8a31fdcf25b"/>
				</context>
				<outcome>
					<coding>
						<system value="http://snomed.info/sct"/>
						<code value="427854007"/>
						<display value="Condition not suspected"/>
					</coding>
				</outcome>
				<report>
					<reference value="urn:uuid:6686a40a-22bc-4396-a0f0-f134c894b01c"/>
				</report>
			</Procedure>
		</resource>
	</entry>
		
	
	<!--Blood Spot Test CF Procedure-->
	<entry>
		<fullUrl value="urn:uuid:47ac4243-bda0-4988-adbb-afede243c226"/>
		<resource>
			<Procedure>
			<id value="47ac4243-bda0-4988-adbb-afede243c226"/>
			<meta>
				<profile value="https://fhir.nhs.uk/STU3/StructureDefinition/CareConnect-DCH-NewbornBloodSpotScreeningCF-Procedure-1"/>
			</meta>
				<identifier>
					<system value="urn:ietf:rfc:3986"/>
					<value value="3169ad95-a252-4972-a1ec-4f091ccc3277"/>
				</identifier>
				<status value="completed"/>
				<code>
					<coding>
						<system value="http://snomed.info/sct"/>
						<code value="314080004"/>
						<display value="Cystic fibrosis screening test"/>
					</coding>
				</code>
				<subject>
					<reference value="urn:uuid:7368c5fe-bbb4-4e9c-a585-234e06b84e82"/>
				</subject>
				<context>
					<reference value="urn:uuid:1bcb0151-4ddf-4084-9c06-e8a31fdcf25b"/>
				</context>
				<outcome>
					<coding>
						<system value="http://snomed.info/sct"/>
						<code value="428273001"/>
						<display value="Condition not suspected"/>
					</coding>
				</outcome>
				<report>
					<reference value="urn:uuid:6686a40a-22bc-4396-a0f0-f134c894b01c"/>
				</report>
			</Procedure>
		</resource>
	</entry>
		
	<!--Blood Spot Test CHT Procedure-->
	<entry>
		<fullUrl value="urn:uuid:78d24725-9964-4d28-bc01-ccbf946c3be6"/>
		<resource>
			<Procedure>
			<id value="78d24725-9964-4d28-bc01-ccbf946c3be6"/>
			<meta>
				<profile value="https://fhir.nhs.uk/STU3/StructureDefinition/CareConnect-DCH-NewbornBloodSpotScreeningPKU-Procedure-1"/>
			</meta>
				<identifier>
					<system value="urn:ietf:rfc:3986"/>
					<value value="68aff4dc-7876-4f69-8912-c59964f7fbee"/>
				</identifier>
				<status value="completed"/>
				<code>
					<coding>
						<system value="http://snomed.info/sct"/>
						<code value="400984005"/>
						<display value="Congenital hypothyroidism screening test"/>
					</coding>
				</code>
				<subject>
					<reference value="urn:uuid:7368c5fe-bbb4-4e9c-a585-234e06b84e82"/>
				</subject>
				<context>
					<reference value="urn:uuid:1bcb0151-4ddf-4084-9c06-e8a31fdcf25b"/>
				</context>
				<outcome>
					<coding>
						<system value="http://snomed.info/sct"/>
						<code value="428999001"/>
						<display value="Condition not suspected"/>
					</coding>
				</outcome>
				<report>
					<reference value="urn:uuid:6686a40a-22bc-4396-a0f0-f134c894b01c"/>
				</report>
			</Procedure>
		</resource>
	</entry>
	
	<!--Blood Spot Test MCADD Procedure-->
	<entry>
		<fullUrl value="urn:uuid:036f2447-dd0f-499d-9f00-00b27edfb8d1"/>
		<resource>
			<Procedure>
			<id value="036f2447-dd0f-499d-9f00-00b27edfb8d1"/>
			<meta>
				<profile value="https://fhir.nhs.uk/STU3/StructureDefinition/CareConnect-DCH-NewbornBloodSpotScreeningPKU-Procedure-1"/>
			</meta>
				<identifier>
					<system value="urn:ietf:rfc:3986"/>
					<value value="8f08e373-7255-4e30-8392-3388a079f8f8"/>
				</identifier>
				<status value="completed"/>
				<code>
					<coding>
						<system value="http://snomed.info/sct"/>
						<code value="428056008"/>
						<display value="Medium-chain acyl-coenzyme A dehydrogenase deficiency screening test"/>
					</coding>
				</code>
				<subject>
					<reference value="urn:uuid:7368c5fe-bbb4-4e9c-a585-234e06b84e82"/>
				</subject>
				<context>
					<reference value="urn:uuid:1bcb0151-4ddf-4084-9c06-e8a31fdcf25b"/>
				</context>
				<outcome>
					<coding>
						<system value="http://snomed.info/sct"/>
						<code value="428279002"/>
						<display value="Condition not suspected"/>
					</coding>
				</outcome>
				<report>
					<reference value="urn:uuid:6686a40a-22bc-4396-a0f0-f134c894b01c"/>
				</report>
			</Procedure>
		</resource>
	</entry>
	
	<!--Blood Spot Test HCU Procedure-->
	<entry>
		<fullUrl value="urn:uuid:f14c5e57-c588-427b-9b39-c81b20541985"/>
		<resource>
			<Procedure>
			<id value="f14c5e57-c588-427b-9b39-c81b20541985"/>
			<meta>
				<profile value="https://fhir.nhs.uk/STU3/StructureDefinition/CareConnect-DCH-NewbornBloodSpotScreeningPKU-Procedure-1"/>
			</meta>
				<identifier>
					<system value="urn:ietf:rfc:3986"/>
					<value value="348b2abf-45b1-4c39-8ab8-db0b3fb01295"/>
				</identifier>
				<status value="completed"/>
				<code>
					<coding>
						<system value="http://snomed.info/sct"/>
						<code value="940201000000107"/>
						<display value="Blood spot homocystinuria screening test"/>
					</coding>
				</code>
				<subject>
					<reference value="urn:uuid:7368c5fe-bbb4-4e9c-a585-234e06b84e82"/>
				</subject>
				<context>
					<reference value="urn:uuid:1bcb0151-4ddf-4084-9c06-e8a31fdcf25b"/>
				</context>
				<outcome>
					<coding>
						<system value="http://snomed.info/sct"/>
						<code value=" 950141000000103"/>
						<display value="Condition not suspected"/>
					</coding>
				</outcome>
				<report>
					<reference value="urn:uuid:6686a40a-22bc-4396-a0f0-f134c894b01c"/>
				</report>
			</Procedure>
		</resource>
	</entry>

<!--Blood Spot Test MSUD Procedure-->
	<entry>
		<fullUrl value="urn:uuid:f818d131-502a-4f80-bee7-ee3fd08d31e3"/>
		<resource>
			<Procedure>
			<id value="f818d131-502a-4f80-bee7-ee3fd08d31e3"/>
			<meta>
				<profile value="https://fhir.nhs.uk/STU3/StructureDefinition/CareConnect-DCH-NewbornBloodSpotScreeningPKU-Procedure-1"/>
			</meta>
				<identifier>
					<system value="urn:ietf:rfc:3986"/>
					<value value="7a6aad16-6026-40bd-ab14-863d30e5f740"/>
				</identifier>
				<status value="completed"/>
				<code>
					<coding>
						<system value="http://snomed.info/sct"/>
						<code value="940221000000103"/>
						<display value="Blood spot maple syrup urine disease screening test"/>
					</coding>
				</code>
				<subject>
					<reference value="urn:uuid:7368c5fe-bbb4-4e9c-a585-234e06b84e82"/>
				</subject>
				<context>
					<reference value="urn:uuid:1bcb0151-4ddf-4084-9c06-e8a31fdcf25b"/>
				</context>
				<outcome>
					<coding>
						<system value="http://snomed.info/sct"/>
						<code value=" 949801000000101"/>
						<display value="Condition not suspected"/>
					</coding>
				</outcome>
				<report>
					<reference value="urn:uuid:6686a40a-22bc-4396-a0f0-f134c894b01c"/>
				</report>
			</Procedure>
		</resource>
	</entry>

	<!--Blood Spot Test GA1 Procedure-->
	<entry>
		<fullUrl value="urn:uuid:25f607d7-48ef-4b4e-a1bd-d9206b239df7"/>
		<resource>
			<Procedure>
			<id value="25f607d7-48ef-4b4e-a1bd-d9206b239df7"/>
			<meta>
				<profile value="https://fhir.nhs.uk/STU3/StructureDefinition/CareConnect-DCH-NewbornBloodSpotScreeningPKU-Procedure-1"/>
			</meta>
				<identifier>
					<system value="urn:ietf:rfc:3986"/>
					<value value="86ecb6a4-b151-41cc-b160-03f9b802a359"/>
				</identifier>
				<status value="completed"/>
				<code>
					<coding>
						<system value="http://snomed.info/sct"/>
						<code value="940131000000109"/>
						<display value="Blood spot glutaric aciduria type 1 screening test"/>
					</coding>
				</code>
				<subject>
					<reference value="urn:uuid:7368c5fe-bbb4-4e9c-a585-234e06b84e82"/>
				</subject>
				<context>
					<reference value="urn:uuid:1bcb0151-4ddf-4084-9c06-e8a31fdcf25b"/>
				</context>
				<outcome>
					<coding>
						<system value="http://snomed.info/sct"/>
						<code value="951781000000101"/>
						<display value="Condition not suspected"/>
					</coding>
				</outcome>
				<report>
					<reference value="urn:uuid:6686a40a-22bc-4396-a0f0-f134c894b01c"/>
				</report>
			</Procedure>
		</resource>
	</entry>
	
<!--Blood Spot Test IVA Procedure-->
	<entry>
		<fullUrl value="urn:uuid:e3c6ae24-6601-413a-b4a3-4afb5a8337e8"/>
		<resource>
			<Procedure>
			<id value="e3c6ae24-6601-413a-b4a3-4afb5a8337e8"/>
			<meta>
				<profile value="https://fhir.nhs.uk/STU3/StructureDefinition/CareConnect-DCH-NewbornBloodSpotScreeningPKU-Procedure-1"/>
			</meta>
				<identifier>
					<system value="urn:ietf:rfc:3986"/>
					<value value="9f553145-590d-4c30-bc22-bf3b649edadb"/>
				</identifier>
				<status value="completed"/>
				<code>
					<coding>
						<system value="http://snomed.info/sct"/>
						<code value="940151000000102"/>
						<display value="Blood spot isovaleric acidaemia screening test"/>
					</coding>
				</code>
				<subject>
					<reference value="urn:uuid:7368c5fe-bbb4-4e9c-a585-234e06b84e82"/>
				</subject>
				<context>
					<reference value="urn:uuid:1bcb0151-4ddf-4084-9c06-e8a31fdcf25b"/>
				</context>
				<outcome>
					<coding>
						<system value="http://snomed.info/sct"/>
						<code value="951741000000109"/>
						<display value="Condition not suspected"/>
					</coding>
				</outcome>
				<report>
					<reference value="urn:uuid:6686a40a-22bc-4396-a0f0-f134c894b01c"/>
				</report>
			</Procedure>
		</resource>
	</entry>

		<!--Blood Spot Diagnostic Report-->
	<entry>
		<fullUrl value="urn:uuid:4ae3b640-a32b-4879-8c6c-3896ac19da74"/>
		<resource>
			<DiagnosticReport>
			<id value="4ae3b640-a32b-4879-8c6c-3896ac19da74"/>
			<meta>
				<profile value="https://fhir.nhs.uk/STU3/StructureDefinition/DCH-NewbornBloodSpotScreening-DiagnosticReport-1"/>
			</meta>
				<identifier>
					<system value="urn:ietf:rfc:3986"/>
					<value value="0f6c93f7-75d4-4f61-aeee-6e00800c9291"/>
				</identifier>
				<status value="final"/>
				<code>
					<coding>
						<system value="http://snomed.info/sct"/>
						<code value="866371000000107"/>
						<display value="Child Screening Report (record artifact)"/>
					</coding>
				</code>
				<subject>
					<reference value="urn:uuid:7368c5fe-bbb4-4e9c-a585-234e06b84e82"/>
				</subject>
				<context>
					<reference value="urn:uuid:1bcb0151-4ddf-4084-9c06-e8a31fdcf25b"/>
				</context>
				<issued value="2017-10-02T20:12:00+00:00"/>
				<result>
					<reference value="urn:uuid:796a220c-7888-46ac-962e-46c971e1dbdf"/>
				</result>
				<result>
					<reference value="urn:uuid:feeddff6-9eee-4856-8dc1-819bea6abbce"/>
				</result>
				<result>
					<reference value="urn:uuid:47ac4243-bda0-4988-adbb-afede243c226"/>
				</result>
				<result>
					<reference value="urn:uuid:78d24725-9964-4d28-bc01-ccbf946c3be6"/>
				</result>
				<result>
					<reference value="urn:uuid:036f2447-dd0f-499d-9f00-00b27edfb8d1"/>
				</result>
				<result>
					<reference value="urn:uuid:f14c5e57-c588-427b-9b39-c81b20541985"/>
				</result>
				<result>
					<reference value="urn:uuid:f818d131-502a-4f80-bee7-ee3fd08d31e3"/>
				</result>
				<result>
					<reference value="urn:uuid:25f607d7-48ef-4b4e-a1bd-d9206b239df7"/>
				</result>
				<result>
					<reference value="urn:uuid:e3c6ae24-6601-413a-b4a3-4afb5a8337e8"/>
				</result>
			</DiagnosticReport>
		</resource>
	</entry>	
	
	<!--Blood Spot Encounter details-->
	<entry>
		<fullUrl value="urn:uuid:1bcb0151-4ddf-4084-9c06-e8a31fdcf25b"/>
		<resource>
			<Encounter>
				<id value="1bcb0151-4ddf-4084-9c06-e8a31fdcf25b"/>
				<meta>
					<profile value="https://fhir.nhs.uk/StructureDefinition/CareConnect-DCH-Encounter-1"/>
				</meta>
				<identifier>
					<system value="urn:ietf:rfc:3986"/>
					<value value="af71a415-ae02-4159-914b-8b78c499fb1d"/>
				</identifier>
				<status value="finished"/>
				<subject>
					<reference value="urn:uuid:7368c5fe-bbb4-4e9c-a585-234e06b84e82"/>
					<display value="DAWKINS, Jack"/>
				</subject>
				<period>
					<start value="2018-01-29T09:00:00"/>
				</period>
				<location>
					<location>
						<reference value="urn:uuid:02692f55-56cf-4dda-8ef5-e9ec13f6bd99"/>
					</location>
				</location>
				<serviceProvider>
					<reference value="urn:uuid:5a293df7-b22f-41b6-8bf1-44248ea59edb"/>
				</serviceProvider>
			</Encounter>
		</resource>
	</entry>
	
	<!--Location where event took place-->
	<entry>
		<fullUrl value="urn:uuid:02692f55-56cf-4dda-8ef5-e9ec13f6bd99"/>
		<resource>
			<Location>
				<id value="02692f55-56cf-4dda-8ef5-e9ec13f6bd99"/>
				<meta>
					<profile value="https://fhir.hl7.org.uk/StructureDefinition/CareConnect-DCH-Location-1"/>
				</meta>
				<identifier>
					<system value="https://fhir.nhs.uk/Id/ods-site-code"/>
					<value value="RX3EP"/>
				</identifier>
			</Location>
		</resource>
	</entry>
	
</Bundle>
