<?xml version="1.0" encoding="UTF-8"?>
<!--This example message is provided for illustrative purposes only. It has had no clinical validation. Where there are conflicts with the written message specification or schema, the specification or schema shall be considered to take precedence-->
<Bundle xmlns="http://hl7.org/fhir" xmlns:xsi="http://www.w3.org/2001/XMLSchema-instance" xsi:schemaLocation="http://hl7.org/fhir file:///C:/stu3/bundle.xsd">
	<id value="a8ca980c-72aa-11e7-8cf7-a6006ad3dba0"/>
	<meta>
		<profile value="https://fhir.nhs.uk/StructureDefinition/DCH-Bundle-1"/>
	</meta>
	<type value="message"/>
			<entry>
		<fullUrl value="urn:uuid:85c8a1c5-a8a1-41c9-bb99-20956fa66218"/>
		<resource>
			<MessageHeader>
				<id value="85c8a1c5-a8a1-41c9-bb99-20956fa66218"/>
				<meta>
					<profile value="https://fhir.nhs.uk/STU3/StructureDefinition/DCH-MessageHeader-1"/>
				</meta>
				<extension url="https://fhir.nhs.uk/STU3/StructureDefinition/Extension-DCH-MessageEventType-1">
					<valueCodeableConcept>
						<coding>
							<system value="https://fhir.nhs.uk/STU3/CodeSystem/DCH-MessageEventType-1"/>
							<code value="new"/>
							<display value="New event message"/>
						</coding>
					</valueCodeableConcept>
				</extension>
				<event>
					<system value="https://fhir.nhs.uk/STU3/CodeSystem/DCH-ChildHealthEventType-1"/>
					<code value="CH035"/>
					<display value="Blood Spot Test Outcome"/>
				</event>
				<timestamp value="2017-11-01T15:00:00+00:00"/>
				<source>
					<endpoint value="urn:nhs-uk:addressing:ods:X26"/>
				</source>
				<responsible>
					<reference value="urn:uuid:3ff6d789-af64-4d9c-aa1d-0087d29e9e1c"/>
					<display value="NHS DIGITAL"/>
				</responsible>
				<focus>
					<reference value="urn:uuid:12779557-9033-4213-876f-69a670cdf35d"/>
				</focus>
			</MessageHeader>
		</resource>
	</entry>
	<!--Responsible org-->
	<entry>
		<fullUrl value="urn:uuid:48833cb6-a2d5-4364-9b08-7d2ef6dacffb"/>
		<resource>
			<Organization>
				<id value="48833cb6-a2d5-4364-9b08-7d2ef6dacffb"/>
				<meta>
					<profile value="https://fhir.nhs.uk/STU3/StructureDefinition/CareConnect-Organization-1"/>
				</meta>
				<identifier>
					<system value="https://fhir.nhs.uk/Id/ods-organization-code"/>
					<value value="X26"/>
				</identifier>
				<name value="NHS DIGITAL"/>
				<address>
					<line value="1 TREVELYAN SQUARE"/>
					<line value="BOAR LANE"/>
					<city value="LEEDS"/>
					<district value="WEST YORKSHIRE"/>
					<postalCode value="LS1 6AE"/>
				</address>
			</Organization>
		</resource>
	</entry>
	<!--Healthcare service used e.g GP, trust, etc..-->
	<entry>
		<fullUrl value="urn:uuid:5a293df7-b22f-41b6-8bf1-44248ea59edb"/>
		<resource>
			<HealthcareService>
				<id value="2db9a96b-393f-4817-868f-3e064296f1f9"/>
				<meta>
					<profile value="https://fhir.nhs.uk/STU3/StructureDefinition/EMS-HealthcareService-1"/>
				</meta>
				<identifier>
					<system value="https://tools.ietf.org/html/rfc4122"/>
					<value value="2db9a96b-393f-4817-868f-3e064296f1f9"/>
				</identifier>
				<providedBy>
					<reference value="urn:uuid:3ff6d789-af64-4d9c-aa1d-0087d29e9e1c"/>
					<display value="NHS DIGITAL"/>
				</providedBy>
				<type>
					<coding>
						<system value="https://fhir.nhs.uk/STU3/CodeSystem/DCH-ProfessionalType-1"/>
						<code value="M03"/>
						<display value="General Medical Practitioner"/>
					</coding>
				</type>
				<specialty>
					<coding>
						<system value="https://fhir.nhs.uk/STU3/CodeSystem/DCH-Specialty-1"/>
						<code value="600"/>
						<display value="GENERAL MEDICAL PRACTICE"/>
					</coding>
				</specialty>
				<location>
					<reference value="urn:uuid:e3177167-40fc-4f1a-80f2-a2f17f18fde7"/>
				</location>
				
			</HealthcareService>
		</resource>
	</entry>
	<!-- Patient-->
	<entry>
		<fullUrl value="urn:uuid:7368c5fe-bbb4-4e9c-a585-234e06b84e82"/>
		<resource>
			<Patient>
				<id value="7368c5fe-bbb4-4e9c-a585-234e06b84e82"/>
				<meta>
					<profile value="https://fhir.hl7.org.uk/STU3/StructureDefinition/CareConnect-Baby-Patient-1"/>
				</meta>
				<identifier>
					<extension url="https://fhir.hl7.org.uk/STU3/StructureDefinition/Extension-CareConnect-NHSNumberVerificationStatus-1">
						<valueCodeableConcept>
							<coding>
								<system value="https://fhir.hl7.org.uk/STU3/CareConnect-NHSNumberVerificationStatus-1"/>
								<code value="01"/>
								<display value="Number present and verified"/>
							</coding>
						</valueCodeableConcept>
					</extension>
					<extension url="http://hl7.org/fhir/StructureDefinition/birthPlace">
						<valueAddress>
							<city value="LEEDS"/>
							<district value="West Yorkshire"/>
							<country value="UK"/>
						</valueAddress>
					</extension>
					<system value="https://fhir.nhs.uk/Id/nhs-number"/>
					<value value="9912003888"/>
				</identifier>
				<identifier>
					<system value="https://fhir.nhs.uk/Id/local-patient-identifier"/>
					<value value="123456"/>
				</identifier>
				<name>
					<family value="DAWKINS"/>
					<given value="Jack"/>
				</name>
				<birthDate value="2017-10-02">
					<extension url="http://hl7.org/fhir/StructureDefinition/patient-birthTime">
						<valueDateTime value="2017-10-02T20:12:00+00:00"/>
					</extension>
				</birthDate>
				<address>
					<use value="home"/>
					<line value="4 Sandmoor Drive"/>
					<city value="LEEDS"/>
					<postalCode value="LS17 7DF"/>
				</address>
				<multipleBirthInteger value="1"/>
			</Patient>
		</resource>
	</entry>
	
	<!--Blood Spot Test PKU Procedure-->
	<entry>
		<fullUrl value="urn:uuid:796a220c-7888-46ac-962e-46c971e1dbdf"/>
		<resource>
			<Procedure>
			<meta>
				<profile value="https://fhir.nhs.uk/STU3/StructureDefinition/CareConnect-DCH-NewbornBloodSpotScreeningCF-Procedure-1"/>
			</meta>
				<identifier>
					<system value="https://tools.ietf.org/html/rfc4122"/>
					<value value="a8ca9fe6-72aa-11e7-8cf7-a6006ad3dba0"/>
				</identifier>
				<status value="completed"/>
				<code>
					<coding>
						<system value="http://snomed.info/sct"/>
						<code value="314081000"/>
						<display value="Phenylketonuria screening test"/>
					</coding>
				</code>
				<subject>
					<reference value="urn:uuid:7368c5fe-bbb4-4e9c-a585-234e06b84e82"/>
				</subject>
				<context>
					<reference value="urn:uuid:a8ca9fe6-72aa-11e7-8cf7-a6006ad3dba0"/>
				</context>
				<outcome>
					<coding>
						<system value="http://snomed.info/sct"/>
						<code value="429106008"/>
						<display value="Condition not suspected"/>
					</coding>
				</outcome>
				<report>
					<reference value="urn:uuid:6686a40a-22bc-4396-a0f0-f134c894b01c"/>
				</report>
			</Procedure>
		</resource>
	</entry>
		

	<!--Blood Spot Test SCD Procedure-->
	<entry>
		<fullUrl value="urn:uuid:feeddff6-9eee-4856-8dc1-819bea6abbce"/>
		<resource>
			<Procedure>
			<meta>
				<profile value="https://fhir.nhs.uk/STU3/StructureDefinition/CareConnect-DCH-NewbornBloodSpotScreeningCF-Procedure-1"/>
			</meta>
				<identifier>
					<system value="https://tools.ietf.org/html/rfc4122"/>
					<value value="a8ca9fe6-72aa-11e7-8cf7-a6006ad3dba0"/>
				</identifier>
				<status value="completed"/>
				<code>
					<coding>
						<system value="http://snomed.info/sct"/>
						<code value="314090007"/>
						<display value="Sickle cell disease screening test"/>
					</coding>
				</code>
				<subject>
					<reference value="urn:uuid:7368c5fe-bbb4-4e9c-a585-234e06b84e82"/>
				</subject>
				<context>
					<reference value="urn:uuid:a8ca9fe6-72aa-11e7-8cf7-a6006ad3dba0"/>
				</context>
				<outcome>
					<coding>
						<system value="http://snomed.info/sct"/>
						<code value="427854007"/>
						<display value="Condition not suspected"/>
					</coding>
				</outcome>
				<report>
					<reference value="urn:uuid:6686a40a-22bc-4396-a0f0-f134c894b01c"/>
				</report>
			</Procedure>
		</resource>
	</entry>
		
	
	<!--Blood Spot Test CF Procedure-->
	<entry>
		<fullUrl value="urn:uuid:47ac4243-bda0-4988-adbb-afede243c226"/>
		<resource>
			<Procedure>
			<meta>
				<profile value="https://fhir.nhs.uk/STU3/StructureDefinition/CareConnect-DCH-NewbornBloodSpotScreeningCF-Procedure-1"/>
			</meta>
				<identifier>
					<system value="https://tools.ietf.org/html/rfc4122"/>
					<value value="a8ca9fe6-72aa-11e7-8cf7-a6006ad3dba0"/>
				</identifier>
				<status value="completed"/>
				<code>
					<coding>
						<system value="http://snomed.info/sct"/>
						<code value="314080004"/>
						<display value="Cystic fibrosis screening test"/>
					</coding>
				</code>
				<subject>
					<reference value="urn:uuid:7368c5fe-bbb4-4e9c-a585-234e06b84e82"/>
				</subject>
				<context>
					<reference value="urn:uuid:a8ca9fe6-72aa-11e7-8cf7-a6006ad3dba0"/>
				</context>
				<outcome>
					<coding>
						<system value="http://snomed.info/sct"/>
						<code value="428273001"/>
						<display value="Condition not suspected"/>
					</coding>
				</outcome>
				<report>
					<reference value="urn:uuid:6686a40a-22bc-4396-a0f0-f134c894b01c"/>
				</report>
			</Procedure>
		</resource>
	</entry>
		
	<!--Blood Spot Test CHT Procedure-->
	<entry>
		<fullUrl value="urn:uuid:78d24725-9964-4d28-bc01-ccbf946c3be6"/>
		<resource>
			<Procedure>
			<meta>
				<profile value="https://fhir.nhs.uk/STU3/StructureDefinition/CareConnect-DCH-NewbornBloodSpotScreeningPKU-Procedure-1"/>
			</meta>
				<identifier>
					<system value="https://tools.ietf.org/html/rfc4122"/>
					<value value="a8ca9fe6-72aa-11e7-8cf7-a6006ad3dba0"/>
				</identifier>
				<status value="completed"/>
				<code>
					<coding>
						<system value="http://snomed.info/sct"/>
						<code value="400984005"/>
						<display value="Congenital hypothyroidism screening test"/>
					</coding>
				</code>
				<subject>
					<reference value="urn:uuid:7368c5fe-bbb4-4e9c-a585-234e06b84e82"/>
				</subject>
				<context>
					<reference value="urn:uuid:a8ca9fe6-72aa-11e7-8cf7-a6006ad3dba0"/>
				</context>
				<outcome>
					<coding>
						<system value="http://snomed.info/sct"/>
						<code value="428999001"/>
						<display value="Condition not suspected"/>
					</coding>
				</outcome>
				<report>
					<reference value="urn:uuid:6686a40a-22bc-4396-a0f0-f134c894b01c"/>
				</report>
			</Procedure>
		</resource>
	</entry>
	
	<!--Blood Spot Test MCADD Procedure-->
	<entry>
		<fullUrl value="urn:uuid:036f2447-dd0f-499d-9f00-00b27edfb8d1"/>
		<resource>
			<Procedure>
			<meta>
				<profile value="https://fhir.nhs.uk/STU3/StructureDefinition/CareConnect-DCH-NewbornBloodSpotScreeningPKU-Procedure-1"/>
			</meta>
				<identifier>
					<system value="https://tools.ietf.org/html/rfc4122"/>
					<value value="a8ca9fe6-72aa-11e7-8cf7-a6006ad3dba0"/>
				</identifier>
				<status value="completed"/>
				<code>
					<coding>
						<system value="http://snomed.info/sct"/>
						<code value="428056008"/>
						<display value="Medium-chain acyl-coenzyme A dehydrogenase deficiency screening test"/>
					</coding>
				</code>
				<subject>
					<reference value="urn:uuid:7368c5fe-bbb4-4e9c-a585-234e06b84e82"/>
				</subject>
				<context>
					<reference value="urn:uuid:a8ca9fe6-72aa-11e7-8cf7-a6006ad3dba0"/>
				</context>
				<outcome>
					<coding>
						<system value="http://snomed.info/sct"/>
						<code value="428279002"/>
						<display value="Condition not suspected"/>
					</coding>
				</outcome>
				<report>
					<reference value="urn:uuid:6686a40a-22bc-4396-a0f0-f134c894b01c"/>
				</report>
			</Procedure>
		</resource>
	</entry>
	
	<!--Blood Spot Test HCU Procedure-->
	<entry>
		<fullUrl value="urn:uuid:f14c5e57-c588-427b-9b39-c81b20541985"/>
		<resource>
			<Procedure>
			<meta>
				<profile value="https://fhir.nhs.uk/STU3/StructureDefinition/CareConnect-DCH-NewbornBloodSpotScreeningPKU-Procedure-1"/>
			</meta>
				<identifier>
					<system value="https://tools.ietf.org/html/rfc4122"/>
					<value value="a8ca9fe6-72aa-11e7-8cf7-a6006ad3dba0"/>
				</identifier>
				<status value="completed"/>
				<code>
					<coding>
						<system value="http://snomed.info/sct"/>
						<code value="940201000000107"/>
						<display value="Blood spot homocystinuria screening test"/>
					</coding>
				</code>
				<subject>
					<reference value="urn:uuid:7368c5fe-bbb4-4e9c-a585-234e06b84e82"/>
				</subject>
				<context>
					<reference value="urn:uuid:a8ca9fe6-72aa-11e7-8cf7-a6006ad3dba0"/>
				</context>
				<outcome>
					<coding>
						<system value="http://snomed.info/sct"/>
						<code value=" 950141000000103"/>
						<display value="Condition not suspected"/>
					</coding>
				</outcome>
				<report>
					<reference value="urn:uuid:6686a40a-22bc-4396-a0f0-f134c894b01c"/>
				</report>
			</Procedure>
		</resource>
	</entry>

<!--Blood Spot Test MSUD Procedure-->
	<entry>
		<fullUrl value="urn:uuid:f818d131-502a-4f80-bee7-ee3fd08d31e3"/>
		<resource>
			<Procedure>
			<meta>
				<profile value="https://fhir.nhs.uk/STU3/StructureDefinition/CareConnect-DCH-NewbornBloodSpotScreeningPKU-Procedure-1"/>
			</meta>
				<identifier>
					<system value="https://tools.ietf.org/html/rfc4122"/>
					<value value="a8ca9fe6-72aa-11e7-8cf7-a6006ad3dba0"/>
				</identifier>
				<status value="completed"/>
				<code>
					<coding>
						<system value="http://snomed.info/sct"/>
						<code value="940221000000103"/>
						<display value="Blood spot maple syrup urine disease screening test"/>
					</coding>
				</code>
				<subject>
					<reference value="urn:uuid:7368c5fe-bbb4-4e9c-a585-234e06b84e82"/>
				</subject>
				<context>
					<reference value="urn:uuid:a8ca9fe6-72aa-11e7-8cf7-a6006ad3dba0"/>
				</context>
				<outcome>
					<coding>
						<system value="http://snomed.info/sct"/>
						<code value=" 949801000000101"/>
						<display value="Condition not suspected"/>
					</coding>
				</outcome>
				<report>
					<reference value="urn:uuid:6686a40a-22bc-4396-a0f0-f134c894b01c"/>
				</report>
			</Procedure>
		</resource>
	</entry>

	<!--Blood Spot Test GA1 Procedure-->
	<entry>
		<fullUrl value="urn:uuid:25f607d7-48ef-4b4e-a1bd-d9206b239df7"/>
		<resource>
			<Procedure>
			<meta>
				<profile value="https://fhir.nhs.uk/STU3/StructureDefinition/CareConnect-DCH-NewbornBloodSpotScreeningPKU-Procedure-1"/>
			</meta>
				<identifier>
					<system value="https://tools.ietf.org/html/rfc4122"/>
					<value value="a8ca9fe6-72aa-11e7-8cf7-a6006ad3dba0"/>
				</identifier>
				<status value="completed"/>
				<code>
					<coding>
						<system value="http://snomed.info/sct"/>
						<code value="940131000000109"/>
						<display value="Blood spot glutaric aciduria type 1 screening test"/>
					</coding>
				</code>
				<subject>
					<reference value="urn:uuid:7368c5fe-bbb4-4e9c-a585-234e06b84e82"/>
				</subject>
				<context>
					<reference value="urn:uuid:a8ca9fe6-72aa-11e7-8cf7-a6006ad3dba0"/>
				</context>
				<outcome>
					<coding>
						<system value="http://snomed.info/sct"/>
						<code value="951781000000101"/>
						<display value="Condition not suspected"/>
					</coding>
				</outcome>
				<report>
					<reference value="urn:uuid:6686a40a-22bc-4396-a0f0-f134c894b01c"/>
				</report>
			</Procedure>
		</resource>
	</entry>
	
<!--Blood Spot Test IVA Procedure-->
	<entry>
		<fullUrl value="urn:uuid:e3c6ae24-6601-413a-b4a3-4afb5a8337e8"/>
		<resource>
			<Procedure>
			<meta>
				<profile value="https://fhir.nhs.uk/STU3/StructureDefinition/CareConnect-DCH-NewbornBloodSpotScreeningPKU-Procedure-1"/>
			</meta>
				<identifier>
					<system value="https://tools.ietf.org/html/rfc4122"/>
					<value value="a8ca9fe6-72aa-11e7-8cf7-a6006ad3dba0"/>
				</identifier>
				<status value="completed"/>
				<code>
					<coding>
						<system value="http://snomed.info/sct"/>
						<code value="940151000000102"/>
						<display value="Blood spot isovaleric acidaemia screening test"/>
					</coding>
				</code>
				<subject>
					<reference value="urn:uuid:7368c5fe-bbb4-4e9c-a585-234e06b84e82"/>
				</subject>
				<context>
					<reference value="urn:uuid:a8ca9fe6-72aa-11e7-8cf7-a6006ad3dba0"/>
				</context>
				<outcome>
					<coding>
						<system value="http://snomed.info/sct"/>
						<code value="951741000000109"/>
						<display value="Condition not suspected"/>
					</coding>
				</outcome>
				<report>
					<reference value="urn:uuid:6686a40a-22bc-4396-a0f0-f134c894b01c"/>
				</report>
			</Procedure>
		</resource>
	</entry>

		<!--Blood Spot Diagnostic Report-->
	<entry>
		<fullUrl value="urn:uuid:4ae3b640-a32b-4879-8c6c-3896ac19da74"/>
		<resource>
			<DiagnosticReport>
				<identifier>
					<system value="https://tools.ietf.org/html/rfc4122"/>
					<value value="a8ca9fe6-72aa-11e7-8cf7-a6006ad3dba0"/>
				</identifier>
				<status value="final"/>
				<code>
					<coding>
						<system value="http://snomed.info/sct"/>
						<code value="866371000000107"/>
						<display value="Child Screening Report (record artifact)"/>
					</coding>
				</code>
				<subject>
					<reference value="urn:uuid:7368c5fe-bbb4-4e9c-a585-234e06b84e82"/>
				</subject>
				<context>
					<reference value="urn:uuid:a8ca9fe6-72aa-11e7-8cf7-a6006ad3dba0"/>
				</context>
				<issued value="2017-10-02T20:12:00+00:00"/>
				<result>
					<reference value="urn:uuid:796a220c-7888-46ac-962e-46c971e1dbdf"/>
				</result>
				<result>
					<reference value="urn:uuid:feeddff6-9eee-4856-8dc1-819bea6abbce"/>
				</result>
				<result>
					<reference value="urn:uuid:47ac4243-bda0-4988-adbb-afede243c226"/>
				</result>
				<result>
					<reference value="urn:uuid:78d24725-9964-4d28-bc01-ccbf946c3be6"/>
				</result>
				<result>
					<reference value="urn:uuid:036f2447-dd0f-499d-9f00-00b27edfb8d1"/>
				</result>
				<result>
					<reference value="urn:uuid:f14c5e57-c588-427b-9b39-c81b20541985"/>
				</result>
				<result>
					<reference value="urn:uuid:f818d131-502a-4f80-bee7-ee3fd08d31e3"/>
				</result>
				<result>
					<reference value="urn:uuid:25f607d7-48ef-4b4e-a1bd-d9206b239df7"/>
				</result>
				<result>
					<reference value="urn:uuid:e3c6ae24-6601-413a-b4a3-4afb5a8337e8"/>
				</result>
			</DiagnosticReport>
		</resource>
	</entry>	
	
	<!-- Encounter details-->
	<entry>
		<fullUrl value="urn:uuid:a8ca9fe6-72aa-11e7-8cf7-a6006ad3dba0"/>
		<resource>
			<Encounter>
				<id value="a8ca9fe6-72aa-11e7-8cf7-a6006ad3dba0"/>
				<meta>
					<profile value="https://fhir.nhs.uk/StructureDefinition/CareConnect-DCH-Encounter-1"/>
				</meta>
				<identifier>
					<system value="https://tools.ietf.org/html/rfc4122"/>
					<value value="a8ca9fe6-72aa-11e7-8cf7-a6006ad3dba0"/>
				</identifier>
				<status value="finished"/>
				<type>
					<coding>
						<system value="https://fhir.nhs.uk/DCH-ChildHealthEventType-1"/>
						<code value="Physical Examination"/>
						<display value="Physical Examination"/>
					</coding>
				</type>
				<subject>
					<reference value="urn:uuid:7368c5fe-bbb4-4e9c-a585-234e06b84e82"/>
					<display value="DAWKINS, Jack"/>
				</subject>
				<participant>
					<type>
						<coding>
							<system value="http://hl7.org/fhir/v3/ParticipationType"/>
							<code value="PPRF"/>
							<display value="primary performer"/>
						</coding>
					</type>
					<individual>
						<reference value="urn:uuid:e9dbf8e8-5bdc-11e7-907b-a6006ad3dba0"/>
						<display value="JONES, Bob (Dr.)"/>
					</individual>
				</participant>
				<period>
					<start value="2012-01-29T09:00:00"/>
				</period>
				<location>
					<location>
						<reference value="e3177167-40fc-4f1a-80f2-a2f17f18fde7"/>
						<display value="Silverdale Family Practice"/>
					</location>
				</location>
				<serviceProvider>
					<reference value="urn:uuid:e3177167-40fc-4f1a-80f2-a2f17f18fde7"/>
					<display value="SILVERDALE FAMILY PRACTICE"/>
				</serviceProvider>
			</Encounter>
		</resource>
	</entry>
	<!--Practitioner from Encounter-->
	<entry>
		<fullUrl value="urn:uuid:e9dbf8e8-5bdc-11e7-907b-a6006ad3dba0"/>
		<resource>
			<Practitioner>
				<id value="e9dbf8e8-5bdc-11e7-907b-a6006ad3dba0"/>
				<meta>
					<profile value="https://fhir.hl7.org.uk/StructureDefinition/CareConnect-DCH-Practitioner-1"/>
				</meta>
				<identifier>
					<system value="https://fhir.nhs.uk/Id/sds-role-profile-id"/>
					<value value="PT2468"/>
				</identifier>
				<name>
					<family value="Jones"/>
					<given value="Bob"/>
					<prefix value="Dr."/>
				</name>
				<telecom>
					<system value="phone"/>
					<value value="01911231234"/>
				</telecom>
			</Practitioner>
		</resource>
	</entry>
	<!--Location where event took place-->
	<entry>
		<fullUrl value="urn:uuid:e3177167-40fc-4f1a-80f2-a2f17f18fde7"/>
		<resource>
			<Location>
				<id value="e3177167-40fc-4f1a-80f2-a2f17f18fde7"/>
				<meta>
					<profile value="https://fhir.hl7.org.uk/StructureDefinition/CareConnect-DCH-Location-1"/>
				</meta>
				<identifier>
					<system value="https://fhir.nhs.uk/Id/ods-site-code"/>
					<value value="B86022"/>
				</identifier>
				<name value="Silverdale Family Practice"/>
				<managingOrganization>
					<reference value="urn:uuid:b39c20cf-b3ce-46e0-91f2-d61b623dc490"/>
					<display value="NHS DURHAM DALES, EASINGTON AND SEDGEFIELD CCG"/>
				</managingOrganization>
			</Location>
		</resource>
	</entry>
	
	<!--Managing Org (CCG)-->
	<entry>
		<fullUrl value="urn:uuid:b39c20cf-b3ce-46e0-91f2-d61b623dc490"/>
		<resource>
			<Organization>
				<id value="b39c20cf-b3ce-46e0-91f2-d61b623dc490"/>
				<meta>
					<profile value="https://fhir.hl7.org.uk/StructureDefinition/CareConnect-DCH-Organization-1"/>
				</meta>
				<identifier>
					<system value="https://fhir.nhs.uk/Id/ods-organization-code"/>
					<value value="00D"/>
				</identifier>
				<name value="NHS DURHAM DALES, EASINGTON AND SEDGEFIELD CCG"/>
			</Organization>
		</resource>
	</entry>
	
	
	
</Bundle>
