<?xml version="1.0" encoding="UTF-8"?>
<!--This example message is provided for illustrative purposes only. It has had no clinical validation. Where there are conflicts with the written message specification or schema, the specification or schema shall be considered to take precedence-->
<Bundle xmlns="http://hl7.org/fhir">
	<id value="91e5a484-e53b-427b-8317-130bd79fbb34"/>
	<meta>
		<profile value="https://fhir.nhs.uk/StructureDefinition/DCH-Bundle-1"/>
	</meta>
	<type value="message"/>
	<entry>
		<fullUrl value="urn:uuid:388b6fdf-7dc9-46ea-a4c7-f0030c513605"/>
		<resource>
			<MessageHeader>
				<id value="388b6fdf-7dc9-46ea-a4c7-f0030c513605"/>
				<meta>
					<profile value="https://fhir.nhs.uk/STU3/StructureDefinition/DCH-MessageHeader-1"/>
				</meta>
				<extension url="https://fhir.nhs.uk/STU3/StructureDefinition/Extension-DCH-MessageEventType-1">
					<valueCodeableConcept>
						<coding>
							<system value="https://fhir.nhs.uk/STU3/CodeSystem/DCH-MessageEventType-1"/>
							<code value="new"/>
							<display value="New event message"/>
						</coding>
					</valueCodeableConcept>
				</extension>
				<event>
					<system value="https://fhir.nhs.uk/STU3/CodeSystem/DCH-ChildHealthEventType-1"/>
					<code value="CH004"/>
					<display value="Assessment Scales"/>
				</event>
				<timestamp value="2017-11-01T15:00:00+00:00"/>
				<source>
					<endpoint value="urn:nhs-uk:addressing:ods:A83627"/>
				</source>
				<responsible>
					<reference value="urn:uuid:faad7a74-267f-4e07-b19b-a230d257e0cc"/>
					<display value="SILVERDALE FAMILY PRACTICE"/>
				</responsible>
				<focus>
					<reference value="urn:uuid:5dbe9e0a-d520-44ff-af10-3cbb8d6015c6"/>
				</focus>
			</MessageHeader>
		</resource>
	</entry>
	
		<!--Responsible Org-->
	<entry>
		<fullUrl value="urn:uuid:faad7a74-267f-4e07-b19b-a230d257e0cc"/>
		<resource>
			<Organization>
				<id value="faad7a74-267f-4e07-b19b-a230d257e0cc"/>
				<meta>
					<profile value="https://fhir.nhs.uk/STU3/StructureDefinition/CareConnect-DCH-Organization-1"/>
				</meta>
				<identifier>
					<system value="https://fhir.nhs.uk/Id/ods-organization-code"/>
					<value value="A83627"/>
				</identifier>
				<name value="SILVERDALE FAMILY PRACTICE"/>
				<address>
					<line value="FRONT STREET"/>
					<line value="SOUTH HETTON"/>
					<city value="DURHAM"/>
					<district value="COUNTY DURHAM"/>
					<postalCode value="DH6 2TH"/>
				</address>
			</Organization>
		</resource>
	</entry>
	
	<!--Healthcare service used e.g GP, trust, etc..-->
	<entry>
		<fullUrl value="urn:uuid:5a293df7-b22f-41b6-8bf1-44248ea59edb"/>
		<resource>
			<HealthcareService>
				<id value="5a293df7-b22f-41b6-8bf1-44248ea59edb"/>
				<meta>
					<profile value="https://fhir.nhs.uk/STU3/StructureDefinition/DCH-HealthcareService-1"/>
				</meta>
				<identifier>
					<system value="urn:ietf:rfc:3986"/>
					<value value="fc515f3c-61d4-48b4-bc42-3eebca55550b"/>
				</identifier>
				<providedBy>
					<reference value="urn:uuid:faad7a74-267f-4e07-b19b-a230d257e0cc"/>
					<display value="SILVERDALE FAMILY PRACTICE"/>
				</providedBy>
				<specialty>
					<coding>
						<system value="https://fhir.nhs.uk/STU3/CodeSystem/DCH-Specialty-1"/>
						<code value="600"/>
						<display value="GENERAL MEDICAL PRACTICE"/>
					</coding>
				</specialty>
			</HealthcareService>
		</resource>
	</entry>
	
	<!--Child Details (Jack Dawkins)-->
	<entry>
		<fullUrl value="urn:uuid:c871401e-ba16-42fa-80e1-85693f88699e"/>
		<resource>
			<Patient>
				<id value="c871401e-ba16-42fa-80e1-85693f88699e"/>
				<meta>
					<profile value="https://fhir.nhs.uk/STU3/StructureDefinition/CareConnect-DCH-DCH-Patient-1"/>
				</meta>
				<identifier>
					<extension url="https://fhir.nhs.uk/STU3/StructureDefinition/Extension-CareConnect-NHSNumberVerificationStatus-1">
						<valueCodeableConcept>
							<coding>
								<system value="https://fhir.nhs.uk/STU3/CareConnect-DCH-NHSNumberVerificationStatus-1"/>
								<code value="01"/>
								<display value="Number present and verified"/>
							</coding>
						</valueCodeableConcept>
					</extension>
					<extension url="http://hl7.org/fhir/StructureDefinition/birthPlace">
						<valueAddress>
							<city value="DURHAM"/>
							<district value="County Durham"/>
							<country value="UK"/>
						</valueAddress>
					</extension>
					<system value="https://fhir.nhs.uk/Id/nhs-number"/>
					<value value="9912003888"/>
				</identifier>
				<name>
					<family value="DAWKINS"/>
					<given value="Jack"/>
					<period>
						<start value="2017-10-12"/>
					</period>
				</name>
				<gender value="male"/>
				<birthDate value="2017-10-02">
					<extension url="http://hl7.org/fhir/StructureDefinition/patient-birthTime">
						<valueDateTime value="2017-10-02T20:12:00+00:00"/>
					</extension>
				</birthDate>
				<address>
					<use value="home"/>
					<line value="4 Sandmoor Drive"/>
					<city value="DURHAM"/>
					<postalCode value="DH1 2TF"/>
				</address>
			</Patient>
		</resource>
	</entry>
	
	<!--Assessment Scales ASQ-3-->
	<entry>
		<fullUrl value="urn:uuid:eba23df6-23a1-48b8-80a7-c0d85cb16bbd"/>
		<resource>
		<Observation>
		<id value="eba23df6-23a1-48b8-80a7-c0d85cb16bbd"/>
		<meta>
			<profile value="https://fhir.nhs.uk/StructureDefinition/CareConnect-DCH-DCH-ASQ3AssessmentScale-Observation-1"/>
		</meta>
		<identifier>
			<system value="urn:ietf:rfc:3986"/>
			<value value="6489da28-e3f7-4eb1-b397-78698a045df3"/>
		</identifier>
			<status value="final"/>
			<code>
				<coding>
					<system value="http://snomed.info/sct"/>
					<code value="448615001"/>
					<display value="Ages and Stages Questionnaires Third Edition"/>
				</coding>
			</code>
			<subject>
				<reference value="c871401e-ba16-42fa-80e1-85693f88699e"/>
			</subject>
			<context>
				<reference value="5dbe9e0a-d520-44ff-af10-3cbb8d6015c6"/>
			</context>
			<performer>
				<reference value="10efef65-ad4f-43ed-b848-5e79e6db21c0"/>
			</performer>
			<component>
				<code>
					<coding>
						<system value="http://snomed.info/sct"/>
						<code value="952621000000104"/>
						<display value="ASQ-3 (Ages and Stages Questionnaires Third Edition) 2 month questionnaire - fine motor score"/>
					</coding>
				</code>
				<valueQuantity>
					<value value="20"/>
				</valueQuantity>
			</component>
		</Observation>
		</resource>
	</entry>
	
		<!--Assessment Scales Social Emotional-->
	<entry>
		<fullUrl value="urn:uuid:08715001-a7fa-433d-9465-8e620428c279"/>
		<resource>
		<Observation>
		<id value="08715001-a7fa-433d-9465-8e620428c279"/>
		<meta>
			<profile value="https://fhir.nhs.uk/STU3/StructureDefinition/CareConnect-DCH-DCH-ASQSE-AssessmentScale-Observation-1"/>
		</meta>
		<identifier>
			<system value="urn:ietf:rfc:3986"/>
			<value value="599529a9-1e34-4172-b4ee-d4dcf64cb985"/>
		</identifier>
			<status value="final"/>
			<code>
				<coding>
					<system value="http://snomed.info/sct"/>
					<code value="443222000"/>
					<display value="Ages and Stages Questionnaires Third Edition"/>
				</coding>
			</code>
			<subject>
				<reference value="c871401e-ba16-42fa-80e1-85693f88699e"/>
			</subject>
			<context>
				<reference value="5dbe9e0a-d520-44ff-af10-3cbb8d6015c6"/>
			</context>
			<performer>
				<reference value="10efef65-ad4f-43ed-b848-5e79e6db21c0"/>
			</performer>
			<component>
				<code>
					<coding>
						<system value="http://snomed.info/sct"/>
						<code value="1053951000000103"/>
						<display value="SQ:SE-2 (Ages and Stages Questionnaires: Social-Emotional second edition) 6 month questionnaire score"/>
					</coding>
				</code>
				<valueQuantity>
					<value value="356"/>
				</valueQuantity>
			</component>
		</Observation>
		</resource>
	</entry>
	
	<!--Encounter details-->
	<entry>
		<fullUrl value="urn:uuid:5dbe9e0a-d520-44ff-af10-3cbb8d6015c6"/>
		<resource>
			<Encounter>
				<id value="5dbe9e0a-d520-44ff-af10-3cbb8d6015c6"/>
				<meta>
					<profile value="https://fhir.nhs.uk/StructureDefinition/CareConnect-DCH-DCH-Encounter-1"/>
				</meta>
				<identifier>
					<system value="urn:ietf:rfc:3986"/>
					<value value="ec54ef4f-93e2-454d-9453-4957bf914b67"/>
				</identifier>
				<status value="finished"/>
				<type>
					<coding>
						<system value="https://fhir.nhs.uk/DCH-ChildHealthEventType-1"/>
						<code value="GP Appointment"/>
						<display value="GP Appointment"/>
					</coding>
				</type>
				<subject>
					<reference value="urn:uuid:c871401e-ba16-42fa-80e1-85693f88699e"/>
					<display value="DAWKINS, Jack"/>
				</subject>
				<period>
					<start value="2017-01-29T09:00:00"/>
				</period>
				<location>
					<location>
						<reference value="urn:uuid:e3177167-40fc-4f1a-80f2-a2f17f18fde7"/>
						<display value="SILVERDALE FAMILY PRACTICE"/>
					</location>
				</location>
				<serviceProvider>
					<reference value="urn:uuid:faad7a74-267f-4e07-b19b-a230d257e0cc"/>
					<display value="SILVERDALE FAMILY PRACTICE"/>
				</serviceProvider>
			</Encounter>
		</resource>
	</entry>
	
	<!--Practitioner-->
	<entry>
		<fullUrl value="urn:uuid:10efef65-ad4f-43ed-b848-5e79e6db21c0"/>
		<resource>
			<Practitioner>
				<id value="10efef65-ad4f-43ed-b848-5e79e6db21c0"/>
				<meta>
					<profile value="https://fhir.nhs.uk/StructureDefinition/CareConnect-DCH-DCH-Practitioner-1"/>
				</meta>
				<identifier>
					<system value="https://fhir.nhs.uk/Id/sds-role-profile-id"/>
					<value value="PT2468"/>
				</identifier>
				<name>
					<family value="Strange"/>
					<given value="Stephen"/>
					<prefix value="Dr."/>
				</name>
			</Practitioner>
		</resource>
	</entry>
	
		<!--Practitioner Role-->
	<entry>
		<fullUrl value="urn:uuid:b7e3cc3a-9120-49fe-801c-2793b80ca922"/>
		<resource>
			<PractitionerRole>
				<id value="b7e3cc3a-9120-49fe-801c-2793b80ca922"/>
				<meta>
					<profile value="https://fhir.nhs.uk/STU3/StructureDefinition/CareConnect-DCH-DCH-PractitionerRole-1"/>
				</meta>
				<identifier>
					<system value="https://fhir.nhs.uk/Id/sds-role-profile-id"/>
					<value value="PT2468"/>
				</identifier>
				<practitioner>
					<reference value="urn:uuid:10efef65-ad4f-43ed-b848-5e79e6db21c0"/>
				</practitioner>
				<organization>
					<reference value="urn:uuid:e3177167-40fc-4f1a-80f2-a2f17f18fde7"/>
				</organization>	
				<code>
					<extension url="sdsJobRoleName"/>
					<coding>
						<system value="https://fhir.nhs.uk/STU3/CodeSystem/CareConnect-DCH-SDSJobRoleName-1"/>
						<code value="R0070"/>
						<display value="Associate Specialist"/>
					</coding>
				</code>		
			</PractitionerRole>
		</resource>
	</entry>
	
	<!--Location where event took place-->
	<entry>
		<fullUrl value="urn:uuid:e3177167-40fc-4f1a-80f2-a2f17f18fde7"/>
		<resource>
			<Location>
				<id value="e3177167-40fc-4f1a-80f2-a2f17f18fde7"/>
				<meta>
					<profile value="https://fhir.nhs.uk/StructureDefinition/CareConnect-DCH-DCH-Location-1"/>
				</meta>
				<identifier>
					<system value="https://fhir.nhs.uk/Id/ods-site-code"/>
					<value value="A83627"/>
				</identifier>
				<name value="SILVERDALE FAMILY PRACTICE"/>
			</Location>
		</resource>
	</entry>

</Bundle>
