<?xml version="1.0" encoding="UTF-8"?>
<Bundle xmlns="http://hl7.org/fhir">
	<id value="d12dc439-ca5c-4177-bb70-4fece88edab0"/>
	<meta>
		<profile value="https://fhir.nhs.uk/STU3/StructureDefinition/ITK-Message-Bundle-1"/>
	</meta>
	<identifier>
		<value value="f2521454-2110-4218-8f42-d5bb86a6db08"/>
	</identifier>
	<type value="message"/>
	<entry>
		<fullUrl value="urn:uuid:ea7221b8-3cc0-4b11-bc95-585b056b5428"/>
		<resource>
			<MessageHeader>
				<id value="ea7221b8-3cc0-4b11-bc95-585b056b5428"/>
				<meta>
					<profile value="https://fhir.nhs.uk/STU3/StructureDefinition/ITK-MessageHeader-1"/>
				</meta>
				<extension url="https://fhir.nhs.uk/STU3/StructureDefinition/Extension-ITK-MessageHandling-1">
					<extension url="Key">
						<valueCodeableConcept>
							<coding>
								<system value="https://fhir.nhs.uk/STU3/ITK-HandlingKey-1"/>
								<code value="SNDSRVC"/>
								<display value="Sending Service"/>
							</coding>
						</valueCodeableConcept>
					</extension>
					<extension url="Value">
						<valueString value="SendDocument-v1-0"/>
					</extension>
				</extension>
				<extension url="https://fhir.nhs.uk/STU3/StructureDefinition/Extension-ITK-MessageHandling-1">
					<extension url="Key">
						<valueCodeableConcept>
							<coding>
								<system value="https://fhir.nhs.uk/STU3/ITK-HandlingKey-1"/>
								<code value="INTID"/>
								<display value="Interaction ID"/>
							</coding>
						</valueCodeableConcept>
					</extension>
					<extension url="Value">
						<valueString value="DOC-ToC-Primary-Recipient-eDischarge-1"/>
					</extension>
				</extension>
				<extension url="https://fhir.nhs.uk/STU3/StructureDefinition/Extension-ITK-MessageHandling-1">
					<extension url="Key">
						<valueCodeableConcept>
							<coding>
								<system value="https://fhir.nhs.uk/STU3/ITK-HandlingKey-1"/>
								<code value="INFACK"/>
								<display value="Infrastructure Acknowledgement"/>
							</coding>
						</valueCodeableConcept>
					</extension>
					<extension url="Value">
						<valueBoolean value="true"/>
					</extension>
				</extension>
				<extension url="https://fhir.nhs.uk/STU3/StructureDefinition/Extension-ITK-MessageHandling-1">
					<extension url="Key">
						<valueCodeableConcept>
							<coding>
								<system value="https://fhir.nhs.uk/STU3/ITK-HandlingKey-1"/>
								<code value="SNDO"/>
								<display value="Send Only"/>
							</coding>
						</valueCodeableConcept>
					</extension>
					<extension url="Value">
						<valueBoolean value="true"/>
					</extension>
				</extension>
				<event>
					<extension url="https://fhir.nhs.uk/STU3/StructureDefinition/Extension-ITK-CareSettingType-1">
						<valueCodeableConcept>
							<coding>
								<system value="http://snomed.info/sct"/>
								<code value="394576009"/>
								<display value="Accident &amp; emergency (qualifier value)"/>
							</coding>
						</valueCodeableConcept>
					</extension>
					<system value="http://snomed.info/sct"/>
					<code value="373942005"/>
					<display value="Discharge summary (record artifact)"/>
				</event>
				<destination>
					<endpoint value="urn:nhs-uk:addressing:ods:RHM"/>
				</destination>
				<timestamp value="2017-08-23T10:10:15+00:00"/>
				<author>
					<reference value="urn:uuid:9ff4a692-c1d7-4dd6-9e0b-f44e77348faf"/>
				</author>
				<source>
					<endpoint value="urn:nhs-uk:addressing:ods:B83019"/>
				</source>
				<responsible>
					<reference value="urn:uuid:e1580b71-99bd-4c5b-8d54-9b420418135f"/>
				</responsible>
				<focus>
					<reference value="urn:uuid:c06e13aa-8c3b-4e67-999b-6e07e399e741"/>
				</focus>
			</MessageHeader>
		</resource>
	</entry>
	<!--Practitioner -->
	<entry>
		<fullUrl value="urn:uuid:9ff4a692-c1d7-4dd6-9e0b-f44e77348faf"/>
		<resource>
			<Practitioner>
				<id value="9ff4a692-c1d7-4dd6-9e0b-f44e77348faf"/>
				<meta>
					<profile value="https://fhir.hl7.org.uk/STU3/StructureDefinition/CareConnect-Practitioner-1"/>
				</meta>
				<identifier>
					<system value="https://fhir.nhs.uk/Id/sds-user-id"/>
					<value value="033345750518"/>
				</identifier>
				<name>
					<family value="Rastall"/>
					<given value="Paul"/>
					<prefix value="Dr"/>
				</name>
				<telecom>
					<system value="phone"/>
					<value value="01136323206"/>
					<use value="work"/>
				</telecom>
			</Practitioner>
		</resource>
	</entry>
	<!--Organization-->
	<entry>
		<fullUrl value="urn:uuid:e1580b71-99bd-4c5b-8d54-9b420418135f"/>
		<resource>
			<Organization>
				<id value="e1580b71-99bd-4c5b-8d54-9b420418135f"/>
				<meta>
					<profile value="https://fhir.hl7.org.uk/STU3/StructureDefinition/CareConnect-Organization-1"/>
				</meta>
				<identifier>
					<system value="https://fhir.nhs.uk/Id/ods-organization-code"/>
   				<value value="RY6"/>
				</identifier>
				<type>
					<coding>
						<system value="http://hl7.org/fhir/organization-type"/>
						<code value="prov"/>
						<display value="Healthcare Provider"/>
					</coding>
				</type>
				<name value="Leeds Community Healthcare NHS Trust"/>
				<telecom>
					<system value="phone"/>
					<value value="01136323200"/>
					<use value="work"/>
				</telecom>
				<address>
					<line value="Leeds Community Healthcare NHS Trust"/>
					<line value="First Floor, Stockdale House"/>
					<line value="Headingley Office Park"/>
					<line value="Victoria Road"/>
					<city value="Leeds"/>
					<postalCode value="LS6 1PF"/>
				</address>
			</Organization>
		</resource>
	</entry>
	<entry>
		<fullUrl value="urn:uuid:c06e13aa-8c3b-4e67-999b-6e07e399e741"/>
		<resource>
			<!-- An example document bundle, in this case an outline example containing only an outline EDIS-Composition with no linked resources -->
			<Bundle>
				<id value="c06e13aa-8c3b-4e67-999b-6e07e399e741"/>
				<meta>
					<profile value="https://fhir.nhs.uk/STU3/StructureDefinition/ITK-Document-Bundle-1"/>
				</meta>
				<identifier>
					<value value="41e7c6cb-fc76-4adb-9b17-bd8b978e8072"/>
				</identifier>
				<type value="document"/>
				<!--Outline Composition profile with mandatory elements populated only-->
				<entry>
					<fullUrl value="urn:uuid:fa2a75a7-4257-422d-92a4-cf537f078e13"/>
					<resource>
						<Composition>
							<id value="fa2a75a7-4257-422d-92a4-cf537f078e13"/>
							<meta>
								<profile value="https://fhir.nhs.uk/STU3/StructureDefinition/ITK-EDIS-Composition-1"/>
							</meta>
							<identifier>
								<value id="2b5d459b-df79-4a2b-9b0c-95b2a7ee2ca4"/>
							</identifier>
							<status value="final"/>
							<type>
								<!--Discharge Summary-->
								<coding>
									<system value="http://snomed.info/sct"/>
									<!--Commented out to make this an invalid payload
									<code value="373942005"/>
									<display value="Discharge summary (record artifact)"/>-->
								</coding>
							</type>
							<subject>
								<reference value="urn:uuid:31686b67-9f20-4644-9a54-193d2f91de57"/>
							</subject>
							<date value="2017-08-17T10:00:00+00:00"/>
							<author>
								<reference value="urn:uuid:6239b7a7-380d-46ff-a1c5-7abc4e68f8bc"/>
							</author>
							<title value="Discharge summary"/>
						</Composition>
					</resource>
				</entry>
			</Bundle>
		</resource>
	</entry>
</Bundle>
