<?xml version="1.0" encoding="UTF-8"?>
<!--ITK Message Bundle-->
<Bundle xmlns="http://hl7.org/fhir" xmlns:xsi="http://www.w3.org/2001/XMLSchema-instance" xsi:schemaLocation="http://hl7.org/fhir file:///C:/scratch/stu3/bundle.xsd">
	<id value="e6492db3-3788-4519-bebd-2bdf7d7236d8"/>
	<meta>
		<profile value="https://fhir.nhs.uk/STU3/StructureDefinition/ITK-Message-Bundle-1"/>
	</meta>
	<identifier>
		<value value="a3940bf5-b82e-4c4f-9477-9bbe6861d634"/>
	</identifier>
	<type value="message"/>
<!--ITK Messahe Header-->
	<entry>
		<fullUrl value="urn:uuid:a4409d7c-b613-477c-b623-87e60406c2f0"/>
		<resource>
			<MessageHeader>
				<id value="a4409d7c-b613-477c-b623-87e60406c2f0"/>
				<meta>
					<profile value="https://fhir.nhs.uk/STU3/StructureDefinition/ITK-MessageHeader-2"/>
				</meta>
				<extension url="https://fhir.nhs.uk/STU3/StructureDefinition/Extension-ITK-MessageHandling-2">
					<extension url="BusAckRequested">
						<valueBoolean value="true"/>
					</extension>
					<extension url="InfAckRequested">
						<valueBoolean value="true"/>
					</extension>
					<extension url="RecipientType">
						<valueCoding>
							<system value="https://fhir.nhs.uk/STU3/CodeSystem/ITK-RecipientType-1"/>
							<code value="FA"/>
							<display value="For Action"/>
						</valueCoding>
					</extension>
					<extension url="Priority">
						<valueCoding>
							<system value="https://fhir.nhs.uk/STU3/CodeSystem/ITK-Priority-1"/>
							<code value="routine"/>
							<display value="Routine"/>
						</valueCoding>
					</extension>
					<extension url="MessageDefinition">
						<valueReference>
							<reference value="https://fhir.nhs.uk/STU3/MessageDefinition/ITK-EDIS-MessageDefinition-1"/>
						</valueReference>
					</extension>
				</extension>
				<event>
					<system value="https://fhir.nhs.uk/STU3/CodeSystem/ITK-MessageEvent-2"/>
					<code value="ITK003M"/>
					<display value="EMS National Failsafe Event"/>
				</event>
				<receiver>
					<reference value="c7d0d92f-4db9-4ab0-89c8-375afca971ad"/>
				</receiver>
				<sender>
					<reference value="82245316-944f-4764-ba57-19388fa54d98"/>
				</sender>
				<timestamp value="2017-01-23T10:10:16+00:00"/>
				<source>
					<endpoint value="1.2.826.0.1285.0.2.0.107"/>
				</source>
				<focus>
					<reference value="c7d0d92f-4db9-4ab0-89c8-375afca971ad"/>
				</focus>
			</MessageHeader>
		</resource>
	</entry>
	<!--Practitioner-->
	<entry>
		<fullUrl value="urn:uuid:174a24b7-d7fa-4283-864e-fded75c5c911"/>
		<resource>
			<Practitioner>
				<id value="174a24b7-d7fa-4283-864e-fded75c5c911"/>
				<meta>
					<profile value="https://fhir.nhs.uk/STU3/StructureDefinition/CareConnect-ITK-Header-Practitioner-1"/>
				</meta>
				<identifier>
					<system value="https://fhir.nhs.uk/Id/sds-user-id"/>
					<value value="033345750518"/>
				</identifier>
				<name>
					<family value="Rastall"/>
					<given value="Paul"/>
					<prefix value="Dr"/>
				</name>
			</Practitioner>
		</resource>
	</entry>
	<!--Organization-->
	<entry>
		<fullUrl value="urn:uuid:c7d0d92f-4db9-4ab0-89c8-375afca971ad"/>
		<resource>
			<Organization>
				<id value="c7d0d92f-4db9-4ab0-89c8-375afca971ad"/>
				<meta>
					<profile value="https://fhir.nhs.uk/STU3/StructureDefinition/CareConnect-ITK-Header-Organization-1"/>
				</meta>
				<identifier>
					<system value="https://fhir.nhs.uk/Id/ods-site-code"/>
					<value value="B86056"/>
				</identifier>
			</Organization>
		</resource>
	</entry>
	<entry>
		<fullUrl value="urn:uuid:7f684f03-3159-444e-8714-fc333a59cb01"/>
		<resource>
<!-- ITK Message payload, in this case an outline example containing a EMS Failsafe-->
<Bundle xmlns="http://hl7.org/fhir" xmlns:xsi="http://www.w3.org/2001/XMLSchema-instance" xsi:schemaLocation="http://hl7.org/fhir file:///C:/scratch/stu3/bundle.xsd">
	<id value="b2555d64-9be6-435b-85d3-044da51d2d1f"/>
	<meta>
		<profile value="https://fhir.nhs.uk/STU3/StructureDefinition/NEMS-Bundle-1"/>
	</meta>
	<identifier>
		<system value="https://tools.ietf.org/html/rfc4122"/>
		<value value="b2555d64-9be6-435b-85d3-044da51d2d1f"/>
	</identifier>
	<type value="message"/>
	<!--Entry for MessageHeader with id, timestamp, event type, source, responsible/publishing organization, communication-->
	<entry>
		<fullUrl value="urn:uuid:b2555d64-9be6-435b-85d3-044da51d2d1f"/>
		<resource>
			<MessageHeader>
				<id value="9741f96a-d02b-4fb5-94c1-5802ec0c1a27"/>
				<meta>
					<profile value="https://fhir.nhs.uk/STU3/StructureDefinition/NEMS-MessageHeader-1"/>
				</meta>
				<extension url="https://fhir.nhs.uk/STU3/StructureDefinition/Extension-EMS-MessageEventType-1">
					<valueCodeableConcept>
						<coding>
							<system value="https://fhir.nhs.uk/STU3/CodeSystem/EMS-MessageEventType-1"/>
							<code value="new"/>
							<display value="New event message"/>
						</coding>
					</valueCodeableConcept>
				</extension>
				<event>
					<system value="https://fhir.nhs.uk/STU3/CodeSystem/EMS-EventType-1"/>
					<code value="NPFM001"/>
					<display value="National Population Failsafe Alert"/>
				</event>
				<timestamp value="2017-12-12T10:54:32+00:00"/>
				<source>
					<endpoint value="urn:nhs-uk:addressing:ods:X26"/>
				</source>
				<responsible>
					<reference value="urn:uuid:82245316-944f-4764-ba57-19388fa54d98"/>
					<display value="NHS DIGITAL"/>
				</responsible>
				<focus>
					<reference value="urn:uuid:bce67822-d13e-11e7-8941-cec278b6b50a"/>
				</focus>
			</MessageHeader>
		</resource>
	</entry>
	<!--Entry for responsible/publishing organization i.e. NHS Digital-->
	<entry>
		<fullUrl value="urn:uuid:82245316-944f-4764-ba57-19388fa54d98"/>
		<resource>
			<Organization>
				<id value="82245316-944f-4764-ba57-19388fa54d98"/>
				<meta>
					<profile value="https://fhir.nhs.uk/STU3/StructureDefinition/CareConnect-EMS-Organization-1"/>
				</meta>
				<identifier>
					<system value="https://fhir.nhs.uk/Id/ods-organization-code"/>
					<value value="X26"/>
				</identifier>
				<name value="NHS DIGITAL"/>
				<address>
					<line value="1 TREVELYAN SQUARE"/>
					<line value="BOAR LANE"/>
					<city value="LEEDS"/>
					<district value="WEST YORKSHIRE"/>
					<postalCode value="LS1 6AE"/>
				</address>
			</Organization>
		</resource>
	</entry>
	<!--Entry for service type within the Organization i.e. National Population Failsafe-->
	<entry>
		<fullUrl value="urn:uuid:b834db08-c076-11e7-abc4-cec278b6b50a"/>
		<resource>
			<HealthcareService>
				<id value="b834db08-c076-11e7-abc4-cec278b6b50a"/>
				<meta>
					<profile value="https://fhir.nhs.uk/STU3/StructureDefinition/NEMS-HealthcareService-1"/>
				</meta>
				<identifier>
					<system value="https://tools.ietf.org/html/rfc4122"/>
					<value value="4370c23a-b766-4535-80cf-938929425b15"/>
				</identifier>
				<providedBy>
					<reference value="urn:uuid:b834d806-c076-11e7-abc4-cec278b6b50a"/>
					<display value="NHS DIGITAL"/>
				</providedBy>
				<type>
					<coding>
						<system value="https://fhir.nhs.uk/STU3/CodeSystem/EMS-HealthcareServiceType-1"/>
						<code value="NPFM"/>
						<display value="National Population Failsafe"/>
					</coding>
				</type>
			</HealthcareService>
		</resource>
	</entry>
	<!--Entry for communication for the event message, with reference to subject and payload-->
	<entry>
		<fullUrl value="urn:uuid:85dee0d9-a839-491d-98dd-a954100bacde"/>
		<resource>
			<Communication>
				<id value="85dee0d9-a839-491d-98dd-a954100bacde"/>
				<meta>
					<profile value="https://fhir.nhs.uk/STU3/StructureDefinition/NEMS-Communication-1"/>
				</meta>
				<identifier>
					<system value="https://tools.ietf.org/html/rfc4122"/>
					<value value="cfbb2899-1461-480f-b0f9-97386fc1c316"/>
				</identifier>
				<status value="completed"/>
				<subject>
					<reference value="urn:uuid:260b4ad0-b3df-11e7-abc4-cec278b6b50a"/>
					<display value="DAWKINS, Jack"/>
				</subject>
				<payload>
					<contentReference>
						<reference value="urn:uuid:bce67732-d13e-11e7-8941-cec278b6b50a"/>
					</contentReference>
				</payload>
			</Communication>
		</resource>
	</entry>
	<!--Entry for the Patient who is the subject of the Failsafe Alert.-->
	<entry>
		<fullUrl value="urn:uuid:260b4ad0-b3df-11e7-abc4-cec278b6b50a"/>
		<resource>
			<Patient>
				<id value="260b4ad0-b3df-11e7-abc4-cec278b6b50a"/>
				<meta>
					<profile value="https://fhir.nhs.uk/STU3/StructureDefinition/CareConnect-EMS-Patient-1"/>
				</meta>
				<identifier>
					<extension url="https://fhir.hl7.org.uk/STU3/StructureDefinition/Extension-CareConnect-NHSNumberVerificationStatus-1">
						<valueCodeableConcept>
							<coding>
								<system value="https://fhir.hl7.org.uk/STU3/CareConnect-NHSNumberVerificationStatus-1"/>
								<code value="01"/>
								<display value="Number present and verified"/>
							</coding>
						</valueCodeableConcept>
					</extension>
					<system value="https://fhir.nhs.uk/Id/nhs-number"/>
					<value value="9912003888"/>
				</identifier>
				<name>
					<use value="usual"/>
					<family value="DAWKINS"/>
					<given value="Jack"/>
				</name>
				<gender value="male"/>
				<birthDate value="2017-10-02">
					<extension url="http://hl7.org/fhir/StructureDefinition/patient-birthTime">
						<valueDateTime value="2017-10-02T20:12:00+00:00"/>
					</extension>
				</birthDate>
				<address>
					<use value="home"/>
					<line value="4 Sandmoor Drive"/>
					<city value="LEEDS"/>
					<postalCode value="LS17 7DF"/>
				</address>
			</Patient>
		</resource>
	</entry>
	<!--Entry for task with content of the Failsafe Alert.-->
	<entry>
		<fullUrl value="urn:uuid:0b07625e-0140-4687-928f-8ee7fbd41fe1"/>
		<resource>
			<Task>
				<id value="0b07625e-0140-4687-928f-8ee7fbd41fe1"/>
				<meta>
					<profile value="https://fhir.nhs.uk/STU3/StructureDefinition/EMS-FailsafeAlert-Task-1"/>
				</meta>
				<!--FailsafeAlert-Severity Level-->
				<extension url="https://fhir.nhs.uk/STU3/StructureDefinition/Extension-EMS-FailsafeAlert-SeverityLevel-1">
					<valueCodeableConcept>
						<coding>
							<system value="https://fhir.nhs.uk/STU3/CodeSystem/EMS-FailsafeAlert-SeverityLevel-1"/>
							<code value="Warning Alert"/>
							<display value="Warning Alert"/>
						</coding>
					</valueCodeableConcept>
				</extension>
				<!--FailsafeAlert-Escalation Level-->
				<extension url="https://fhir.nhs.uk/STU3/StructureDefinition/Extension-EMS-FailsafeAlert-EscalationLevel-1">
					<valueCodeableConcept>
						<coding>
							<system value="https://fhir.nhs.uk/STU3/CodeSystem/EMS-FailsafeAlert-EscalationLevel-1"/>
							<code value="Service"/>
							<display value="Service"/>
						</coding>
					</valueCodeableConcept>
				</extension>
				<identifier>
					<system value="https://tools.ietf.org/html/rfc4122"/>
					<value value="bce67732-d13e-11e7-8941-cec278b6b50a"/>
				</identifier>
				<status value="requested"/>
				<intent value="order"/>
				<!--FailsafeAlert-Action Required-->
				<code>
					<coding>
						<system value="https://fhir.nhs.uk/STU3/CodeSystem/EMS-FailsafeAlert-ActionRequired-1"/>
						<code value="001"/>
						<display value="Please add individual to your caseload"/>
					</coding>
				</code>
				<!--FailsafeAlert-ReadableFormat-->
				<description value="Severity Level: Warning Alert - Escalation Level: Service - Condition ID: 001 - Condition Description: Missing Health Visiting Service - Reason for alert: Individual has a missing association with a Health Visiting Service - Service needed to action: Health Visiting - Action Required: Please add individual to your caseload - Action Required by Date: 2017-12-19T10:54:32+00:00"/>
				<!--FailsafeAlert-Patient-->
				<focus>
					<reference value="urn:uuid:260b4ad0-b3df-11e7-abc4-cec278b6b50a"/>
					<display value="DAWKINS, Jack"/>
				</focus>
				<!--FailsafeAlert-Date and Time raised-->
				<authoredOn value="2017-12-12T10:54:32+00:00"/>
				<!--FailsafeAlert-ServiceToAction-->
				<performerType>
					<coding>
						<system value="https://fhir.nhs.uk/STU3/CodeSystem/EMS-FailsafeAlert-ServiceToAction-1"/>
						<code value="Health Visiting"/>
						<display value="Health Visiting"/>
					</coding>
				</performerType>
				<!--FailsafeAlert-ConditionCode-->
				<reason>
					<coding>
						<system value="https://fhir.nhs.uk/STU3/CodeSystem/EMS-FailsafeAlert-Reason-1"/>
						<code value="001"/>
						<display value="Missing Health Visiting Service - Individual has a missing association with a Health Visiting Service"/>
					</coding>
				</reason>
				<restriction>
					<!--FailsafeAlert-Action Required By End Date-->
					<period>
						<end value="2017-12-19T10:54:32+00:00"/>
					</period>
				</restriction>
			</Task>
		</resource>
	</entry>
</Bundle>
		</resource>
	</entry>
</Bundle>
