<?xml version="1.0" encoding="UTF-8"?>
<Bundle xmlns="http://hl7.org/fhir">
	<id value="e6492db3-3788-4519-bebd-2bdf7d7236d8"/>
 <meta>
  <profile value="https://fhir.nhs.uk/STU3/StructureDefinition/ITK-Message-Bundle-1"/>
 </meta>
 <identifier>
  <system value="https://tools.ietf.org/html/rfc4122"/>
  <value value="a3940bf5-b82e-4c4f-9477-9bbe6861d634"/>
 </identifier>
 <type value="message"/>
 <entry>
  <fullUrl value="urn:uuid:a4409d7c-b613-477c-b623-87e60406c2f0"/>
  <resource>
   <MessageHeader>
    <id value="a4409d7c-b613-477c-b623-87e60406c2f0"/>
    <meta>
     <profile value="https://fhir.nhs.uk/STU3/StructureDefinition/ITK-MessageHeader-2"/>
    </meta>
    <extension url="https://fhir.nhs.uk/STU3/StructureDefinition/Extension-ITK-MessageHandling-2">
     <!--The value of this handling specification is dependant on the response pattern.-->
     <extension url="BusAckRequested">
      <valueBoolean value="false"/>
     </extension>
     <extension url="InfAckRequested">
      <valueBoolean value="false"/>
     </extension>
     <extension url="RecipientType">
      <valueCoding>
       <system value="https://fhir.nhs.uk/STU3/CodeSystem/ITK-RecipientType-1"/>
       <code value="FA"/>
       <display value="For Action"/>
      </valueCoding>
     </extension>
     <extension url="MessageDefinition">
      <valueReference>
       <reference value="https://fhir.nhs.uk/STU3/MessageDefinition/ITK-Response-MessageDefinition-Instance-1"/>
      </valueReference>
     </extension>
     <extension url="SenderReference">
      <valueString value="None"/>
     </extension>
     <extension url="LocalExtension">
      <valueString value="None"/>
     </extension>
    </extension>
    <event>
     <system value="https://fhir.nhs.uk/STU3/CodeSystem/ITK-MessageEvent-2"/>
     <code value="ITK008M"/>
     <display value="ITK Response"/>
    </event>
    <sender>
     <reference value="urn:uuid:66b9d031-0a77-4286-89e8-448ed0c5fb1b"/>
    </sender>
    <timestamp value="2017-01-23T10:10:16+00:00"/>
    <source>
     <endpoint value="NOROT003"/>
    </source>
    <response>
     <identifier value="ea7221b8-3cc0-4b11-bc95-585b056b5427"/>
     <code value="ok"/>
     <details>
      <reference value="urn:uuid:30544428-bce3-483b-9794-944a738cfae0"/>
     </details>
    </response>
   </MessageHeader>
  </resource>
 </entry>
 <!--Practitioner-->
 <entry>
  <fullUrl value="urn:uuid:66b9d031-0a77-4286-89e8-448ed0c5fb1b"/>
  <resource>
   <Practitioner>
    <id value="66b9d031-0a77-4286-89e8-448ed0c5fb1b"/>
    <meta>
     <profile value="https://fhir.nhs.uk/STU3/StructureDefinition/CareConnect-ITK-Header-Practitioner-1"/>
    </meta>
    <identifier>
     <system value="https://fhir.nhs.uk/Id/sds-user-id"/>
     <value value="099945750333"/>
    </identifier>
    <name>
     <family value="Cranberry"/>
     <given value="David"/>
     <prefix value="Dr"/>
    </name>
   </Practitioner>
  </resource>
 </entry>
 <entry>
  <fullUrl value="urn:uuid:30544428-bce3-483b-9794-944a738cfae0"/>
  <resource>
   <OperationOutcome>
    <id value="30544428-bce3-483b-9794-944a738cfae0"/>
    <meta>
     <profile value="https://fhir.nhs.uk/STU3/StructureDefinition/ITK-Response-OperationOutcome-1"/>
    </meta>
    <issue>
     <severity value="information"/>
     <code value="informational"/>
     <details>
      <coding>
       <system value="https://fhir.nhs.uk/STU3/CodeSystem/ITK-ResponseCodes-1"/>
       <code value="20013"/>
       <display value="Success"/>
      </coding>
     </details>
    </issue>
   </OperationOutcome>
  </resource>
 </entry>
</Bundle>
