<?xml version="1.0" encoding="UTF-8"?>
<!--This xml example is for illustrative purposes only and has not been clinically verified-->
<Bundle xmlns="http://hl7.org/fhir" xmlns:xsi="http://www.w3.org/2001/XMLSchema-instance" xsi:schemaLocation="http://hl7.org/fhir file:///C:/GitHubRepo/ITK3-FHIR-eDischarge/schemas/bundle.xsd">
	<id value="c06e13aa-8c3b-4e67-999b-6e07e399e741"/>
	<meta>
  <profile value="https://fhir.nhs.uk/STU3/StructureDefinition/ITK-Document-Bundle-1"/>
	</meta>
	 <identifier>
  <system value="https://tools.ietf.org/html/rfc4122"/>
  <value value="d72694a8-8ec2-4884-b1df-d494471fef7e"/>
 </identifier>
	<type value="document"/>
	<!--Emergency Care Composition-->
	<entry>
	<fullUrl value="urn:uuid:6c15fc6e-e017-4ead-b12a-d7d05370d1c4"/>
		<resource>
			<Composition>
				<id value="6c15fc6e-e017-4ead-b12a-d7d05370d1c4"/>
				<meta>
					<profile value="https://fhir.nhs.uk/STU3/StructureDefinition/ITK-ECD-Composition-1"/>
				</meta>
						<!-- Information Recipient 1 -->
    <extension url="https://fhir.nhs.uk/STU3/StructureDefinition/Extension-ITK-InformationRecipient-1">
					<valueReference>
						<reference value="urn:uuid:0105ae6a-a9a2-416f-b57e-e274ac9a48a2"/>
					</valueReference>
				</extension>
				<!-- Information Recipient 2 -->
    <extension url="https://fhir.nhs.uk/STU3/StructureDefinition/Extension-ITK-InformationRecipient-1">
					<valueReference>
						<reference value="urn:uuid:bfeb7b70-ac1f-4a14-a3b9-5842a9e7b761"/>
					</valueReference>
				</extension>
    <!-- Extension to carry details of the Correspondence Care Setting Type. -->
    <extension url="https://fhir.nhs.uk/STU3/StructureDefinition/Extension-ITK-CareSettingType-1">
					<valueCodeableConcept>
						<coding>
							<system value="http://snomed.info/sct"/>
							<code value="394576009"/>
							<display value="Accident &amp; emergency"/>
						</coding>
					</valueCodeableConcept>
				</extension>
				<identifier>
					<value value="2d361270-039f-4a48-827b-ef255ff8b6c4"/>
				</identifier>
	<status value="final"/>
				<type>
     <!--Discharge Summary document type-->
					<coding>
						<system value="http://snomed.info/sct"/>
						<code value="373942005"/>
						<display value="Discharge summary"/>
					</coding>
				</type>
			<subject>
					<reference value="urn:uuid:c8225cc8-8026-466f-80f8-fc2832a4b9d5"/>
				</subject>
	<!--Reference to the clinical encounter or type of care this documentation is associated with.-->
		<encounter>
					<reference value="urn:uuid:9a20cb92-354a-4015-82ec-ab0252efc5b9"/>
		</encounter>
<!--The composition editing time, when the composition was last logically changed by the author.-->
    <date value="2015-02-17T10:00:00+00:00"/>
				<author>
					<reference value="urn:uuid:369d88a8-9f6b-407f-8560-6ee9d7ccc8bb"/>
				</author>
    <title value="Discharge summary"/>
<!--The code specifying the level of confidentiality of the Composition.-->
    <confidentiality value="V"/>
   <!--Identifies the organization responsible for ongoing maintenance of and access to the composition/document information.-->
				<custodian>
					<reference value="urn:uuid:12bba528-a08a-448b-946b-7e8008044025"/>
			</custodian>
				<section>
					<title value="Allergies and adverse reactions"/>
					<code>
						<coding>
							<system value="http://snomed.info/sct"/>
							<code value="886921000000105"/>
							<display value="Allergies and adverse reactions"/>
						</coding>
					</code>
					<text>
						<status value="generated"/>
						<div xmlns="http://www.w3.org/1999/xhtml">
							<table width="100%">
								<tbody>
									<tr>
										<th>Causative agent</th>
										<td>Penicillin</td>
									</tr>
									<tr>
										<th>Description of the reaction</th>
										<td>Rash. No swelling/anaphylaxis</td>
									</tr>
								</tbody>
							</table>
						</div>
					</text>
					<orderedBy>
						<coding>
							<system value="http://hl7.org/fhir/list-order"/>
							<code value="system"/>
							<display value="Sorted by System"/>
						</coding>
					</orderedBy>
   		<entry>
						<reference value="urn:uuid:e75e6df9-0c3d-40be-910c-567931d6ab85"/>
					</entry>
				</section>
				<section>
					<title value="Attendance details"/>
					<code>
						<coding>
							<system value="http://snomed.info/sct"/>
							<code value="1077881000000105"/>
							<display value="Attendance details"/>
						</coding>
					</code>
					<text>
						<status value="generated"/>
						<div xmlns="http://www.w3.org/1999/xhtml">
							<table width="100%">
								<tbody>
									<tr>
										<th>Date and time of arrival</th>
										<td>12-Feb-2015 09:00</td>
									</tr>
								</tbody>
							</table>
						</div>
					</text>
				</section>
								<section>
					<title value="Clinical narrative"/>
					<code>
						<coding>
							<system value="http://snomed.info/sct"/>
							<code value="1077901000000108"/>
							<display value="Clinical narrative"/>
						</coding>
					</code>
					<text>
						<status value="generated"/>
						<div xmlns="http://www.w3.org/1999/xhtml">
							<table width="100%">
								<tbody>
									<tr>
										<th>Clinical narrative</th>
									</tr>
									<tr>
										<td>60 year old man with an acute history of cardiac sounding chest pain lasting around 2 hours.</td>
									</tr>
									<tr>
										<td>Examination unremarkable.</td>
									</tr>
									<tr>
										<td>Inferior ischaemic changes on ECGs and raised Troponin T.</td>
									</tr>
									<tr>
										<td>Coronary angiogram demonstrated diseased RCA, drug eluting stent successfully placed.</td>
									</tr>
									<tr>
										<td>Appropriate secondary prevention medications prescribed and for follow up with Cardiac Rehabilitation team.</td>
									</tr>
								</tbody>
							</table>
							<table>
								<tbody>
									<tr>
										<td>
											<pre>
Full Blood Count      
      
Test						Value			Units			Reference Range
White Cell Count				11.1			x10*9/L			3.5 - 10.0
Red Cell Count					5.0			x10*12/L		4.25 - 5.75 
Haemoglobin					150			g/L			13.0 - 17.0
Haematocrit					0.230			L/L			0.400 - 0.500
Mean Cell Volume				90			fL			84 - 98
Mean Cell Hb					33.0			pg			27.5 - 32.0
Mean Cell Hb Con				34.0			pg			31.0 - 35.0
RDW						12.0			%			&lt; 14.5
Platelet Count					300			x10*9/L			150 - 400

Machine Differential      
      
Test						Value			Units			Reference Range
Neutrophils					7.0			x10*9/L			1.7 - 7.5
Lymphocytes					3.5			x10*9/L			1.0 - 3.5
Monocytes					0.3			x10*9/L			&lt; 0.6
Eosinophils					0.4			x10*9/L			&lt; 0.4
Basophils					0.1			x10*9/L			&lt; 0.1
LUCs						0.2			x10*9/L			&lt; 0.4
      </pre>
										</td>
									</tr>
								</tbody>
							</table>
							<table>
								<tbody>
									<tr>
										<td>ECG</td>
										<td>Inferior ischaemic changes</td>
									</tr>
									<tr>
										<td>Chest Xray</td>
										<td>Normal</td>
									</tr>
								</tbody>
							</table>
						</div>
					</text>
				</section>
				<section>
					<title value="Contact for further information"/>
					<code>
						<coding>
							<system value="http://snomed.info/sct"/>
							<code value="1077931000000102"/>
							<display value="Contact for further information"/>
						</coding>
					</code>
					<text>
						<status value="generated"/>
						<div xmlns="http://www.w3.org/1999/xhtml">
							<table width="100%">
								<tbody>
									<tr>
										<th>Contact for further information</th>
										<td>Mr Marcus Bradley, Emergency Department Administrator</td>
									</tr>
								</tbody>
							</table>
						</div>
					</text>
				</section>
							<section>
					<title value="Diagnoses"/>
					<code>
						<coding>
							<system value="http://snomed.info/sct"/>
							<code value="887161000000102"/>
							<display value="Diagnoses"/>
						</coding>
					</code>
					<text>
						<status value="generated"/>
						<div xmlns="http://www.w3.org/1999/xhtml">
							<table width="100%">
								<tbody>
									<tr>
										<th>Diagnosis</th>
										<td>Cardiac chest pain/ACS</td>
									</tr>
								</tbody>
							</table>
						</div>
					</text>
					<orderedBy>
						<coding>
							<system value="http://hl7.org/fhir/list-order"/>
							<code value="system"/>
							<display value="Sorted by System"/>
						</coding>
					</orderedBy>
					<entry>
						<reference value="urn:uuid:af25f1cf-207f-46f7-8644-2787d9829981"/>
					</entry>
				</section>
						<section>
					<title value="Discharge details"/>
					<code>
						<coding>
							<system value="http://snomed.info/sct"/>
							<code value="886811000000106"/>
							<display value="Discharge details"/>
						</coding>
					</code>
					<text>
						<status value="generated"/>
						<div xmlns="http://www.w3.org/1999/xhtml">
							<table width="100%">
								<tbody>
									<tr>
										<th>Discharge destination</th>
										<td>Home</td>
									</tr>
									<tr>
										<th>Discharge status</th>
										<td>Treatment complete</td>
									</tr>
									<tr>
										<th>Date and time of discharge</th>
										<td>12-Feb-2015 18:00:00</td>
									</tr>
								</tbody>
							</table>
						</div>
					</text>
					<orderedBy>
						<coding>
							<system value="http://hl7.org/fhir/list-order"/>
							<code value="system"/>
							<display value="Sorted by System"/>
						</coding>
					</orderedBy>
     <!--Reference to the Encounter entry as the source of information for this section-->
					<entry>
						<reference value="urn:uuid:9a20cb92-354a-4015-82ec-ab0252efc5b9"/>
					</entry>
				</section>
								<section>
					<title value="Information and advice given"/>
					<code>
						<coding>
							<system value="http://snomed.info/sct"/>
							<code value="1052951000000105"/>
							<display value="Information and advice given"/>
						</coding>
					</code>
					<text>
						<status value="generated"/>
						<div xmlns="http://www.w3.org/1999/xhtml">
							<table width="100%">
								<tbody>
									<tr>
										<th>Information and advice given</th>
										<td>Patient seen by Cardiac Rehab and information given regarding diagnosis, lifestyle change and benefits of rehab programme. Community follow up planned.</td>
									</tr>
								</tbody>
							</table>
						</div>
					</text>
				</section>
								<section>
					<title value="Medications and medical devices"/>
					<code>
						<coding>
							<system value="http://snomed.info/sct"/>
							<code value="933361000000108"/>
							<display value="Medications and medical devices"/>
						</coding>
					</code>
					<text>
						<status value="generated"/>
						<div xmlns="http://www.w3.org/1999/xhtml">
							<table width="100%">
								<tbody>
									<tr>
										<th>Medication name</th>
										<td>Ramipril</td>
									</tr>
									<tr>
										<th>Dose</th>
										<td>2.5mg</td>
									</tr>
									<tr>
										<th>Medication frequency</th>
										<td>OD</td>
									</tr>
									<tr>
										<th>Route</th>
										<td>oral</td>
									</tr>
									<tr>
										<th>Medication recommendations</th>
										<td>continue</td>
									</tr>
								</tbody>
							</table>
							<table width="100%">
								<tbody>
									<tr>
										<th>Medication name</th>
										<td>Omeprazole</td>
									</tr>
									<tr>
										<th>Dose</th>
										<td>20mg</td>
									</tr>
									<tr>
										<th>Medication frequency</th>
										<td>OD/PRN</td>
									</tr>
									<tr>
										<th>Route</th>
										<td>oral</td>
									</tr>
									<tr>
										<th>Medication recommendations</th>
										<td>continue</td>
									</tr>
								</tbody>
							</table>
							<table width="100%">
								<tbody>
									<tr>
										<th>Medication name</th>
										<td>Aspirin</td>
									</tr>
									<tr>
										<th>Dose</th>
										<td>75mg</td>
									</tr>
									<tr>
										<th>Medication frequency</th>
										<td>OD</td>
									</tr>
									<tr>
										<th>Route</th>
										<td>oral</td>
									</tr>
									<tr>
										<th>Medication recommendations</th>
										<td>continue</td>
									</tr>
								</tbody>
							</table>
							<table width="100%">
								<tbody>
									<tr>
										<th>Medication name</th>
										<td>Clopidogrel</td>
									</tr>
									<tr>
										<th>Dose</th>
										<td>75mg</td>
									</tr>
									<tr>
										<th>Medication frequency</th>
										<td>OD</td>
									</tr>
									<tr>
										<th>Route</th>
										<td>oral</td>
									</tr>
									<tr>
										<th>Medication recommendations</th>
										<td>1 year then stop</td>
									</tr>
								</tbody>
							</table>
							<table width="100%">
								<tbody>
									<tr>
										<th>Medication name</th>
										<td>Simvastatin</td>
									</tr>
									<tr>
										<th>Dose</th>
										<td>40mg</td>
									</tr>
									<tr>
										<th>Medication frequency</th>
										<td>OD</td>
									</tr>
									<tr>
										<th>Route</th>
										<td>oral</td>
									</tr>
									<tr>
										<th>Medication recommendations</th>
										<td>continue</td>
									</tr>
								</tbody>
							</table>
							<table width="100%">
								<tbody>
									<tr>
										<th>Medication name</th>
										<td>Bisoprolol</td>
									</tr>
									<tr>
										<th>Dose</th>
										<td>5mg</td>
									</tr>
									<tr>
										<th>Medication frequency</th>
										<td>OD</td>
									</tr>
									<tr>
										<th>Route</th>
										<td>oral</td>
									</tr>
									<tr>
										<th>Medication recommendations</th>
										<td>Uptitrate according to BP and HR</td>
									</tr>
								</tbody>
							</table>
						</div>
					</text>
					<orderedBy>
						<coding>
							<system value="http://hl7.org/fhir/list-order"/>
							<code value="system"/>
							<display value="Sorted by System"/>
						</coding>
					</orderedBy>
     <!--Reference to medication list-->
					<entry>
						<reference value="urn:uuid:8166a004-0f7f-4210-a883-a3152d171bd4"/>
					</entry>
				</section>
						<section>
					<title value="Person completing record"/>
					<code>
						<coding>
							<system value="http://snomed.info/sct"/>
							<code value="887231000000104"/>
							<display value="Person completing record"/>
						</coding>
					</code>
					<text>
						<status value="generated"/>
						<div xmlns="http://www.w3.org/1999/xhtml">
							<table width="100%">
								<tbody>
									<tr>
										<th>Name</th>
										<td>Dr Paul Rastall</td>
									</tr>
									<tr>
										<th>Professional identifier</th>
										<td>6122477 (GMC Reference Number)</td>
									</tr>
								</tbody>
							</table>
						</div>
					</text>
				</section>
					<section>
					<title value="Plan and requested actions"/>
					<code>
						<coding>
							<system value="http://snomed.info/sct"/>
							<code value="887201000000105"/>
							<display value="Plan and requested actions"/>
						</coding>
					</code>
					<text>
						<status value="generated"/>
						<div xmlns="http://www.w3.org/1999/xhtml">
							<table width="100%">
								<tbody>
									<tr>
										<th>Action</th>
										<td>GP please continue secondary preventative medication.</td>
									</tr>
									<tr>
										<th>Action</th>
										<td>Doses will be uptitrated by Cardiac Rehab team.</td>
									</tr>
									<tr>
										<th>Action</th>
										<td>Coronary angiogram performed, and demonstrated diseased RCA.</td>
									</tr>
								</tbody>
							</table>
						</div>
					</text>
				</section>
				<section>
					<title value="Presenting complaints or issues"/>
					<code>
						<coding>
							<system value="http://snomed.info/sct"/>
							<code value="886891000000102"/>
							<display value="Presenting complaints or issues"/>
						</coding>
					</code>
					<text>
						<status value="generated"/>
						<div xmlns="http://www.w3.org/1999/xhtml">
							<table width="100%">
								<tbody>
									<tr>
										<th>Presenting complaint or issue</th>
										<td>Chest pain</td>
									</tr>
								</tbody>
							</table>
						</div>
					</text>
			</section>
							<section>
					<title value="Referrer details"/>
					<code>
						<coding>
							<system value="http://snomed.info/sct"/>
							<code value="1052891000000108"/>
							<display value="Referrer details"/>
						</coding>
					</code>
					<text>
						<status value="generated"/>
						<div xmlns="http://www.w3.org/1999/xhtml">
							<table width="100%">
								<tbody>
									<tr>
										<th>Referrer details</th>
										<td>Mr Richard Smith (Self Referral)</td>
									</tr>
								</tbody>
							</table>
						</div>
					</text>
				</section>
						<section>
					<title value="Senior reviewing clinician"/>
					<code>
						<coding>
							<system value="http://snomed.info/sct"/>
							<code value="1078901000000109"/>
							<display value="Senior reviewing clinician"/>
						</coding>
					</code>
					<text>
						<status value="generated"/>
						<div xmlns="http://www.w3.org/1999/xhtml">
							<table width="100%">
								<tbody>
									<tr>
										<th>Name</th>
										<td>Dr Jasinder Popital</td>
									</tr>
									<tr>
										<th>Professional identifier</th>
										<td>6122498 (GMC Reference Number)</td>
									</tr>
								</tbody>
							</table>
						</div>
					</text>
				</section>
			</Composition>
		</resource>
	</entry>
	<!--Encounter Example 1-->
	<entry>
		<fullUrl value="urn:uuid:9a20cb92-354a-4015-82ec-ab0252efc5b9"/>
		<resource>
<!--Encounter resource providing context for the discharge-->
			<Encounter>
				<id value="9a20cb92-354a-4015-82ec-ab0252efc5b9"/>
				<meta>
     <profile value="https://fhir.nhs.uk/STU3/StructureDefinition/CareConnect-ITK-Encounter-1"/>
				</meta>
				<identifier>
					<system value="https://tools.ietf.org/html/rfc4122"/>
					<value value="ff84120c-43fe-4059-8839-dad2c4f9869c"/>
				</identifier>
				<status value="finished"/>
				<type>
					<coding>
						<system value="http://snomed.info/sct"/>
						<code value="4525004"/>
						<display value="Emergency department patient visit"/>
					</coding>
				</type>
   <!--Reference to the patient as the subject of the Encounter-->
			<subject>
			<reference value="urn:uuid:c8225cc8-8026-466f-80f8-fc2832a4b9d5"/>
			</subject>
				<period>
					<start value="2015-02-12T09:00:00+00:00"/>
					<end value="2015-02-12T18:00:00+00:00"/>
				</period>
				<location>
					<location>
						<reference value="urn:uuid:50ed9220-2a96-47ba-9c28-d4a1e3ecd748"/>
					</location>
				</location>
			</Encounter>
		</resource>
	</entry>
	<!--Medication List Example -->
	<entry>
		<fullUrl value="urn:uuid:8166a004-0f7f-4210-a883-a3152d171bd4"/>
		<resource>
			<List>
				<id value="8166a004-0f7f-4210-a883-a3152d171bd4"/>
				<meta>
     <profile value="https://fhir.nhs.uk/STU3/StructureDefinition/ITK-Medication-List-1"/>
				</meta>
				<identifier>
					<system value="https://tools.ietf.org/html/rfc4122"/>
					<value value="c6107fb7-b943-4318-890c-547adafc83a5"/>
				</identifier>
		<status value="current"/>
		<mode value="snapshot"/>
				<code>
					<coding>
						<system value="http://hl7.org/fhir/list-example-use-codes"/>
						<code value="medications"/>
						<display value="Medication List"/>
					</coding>
				</code>
				<subject>
					<reference value="urn:uuid:c8225cc8-8026-466f-80f8-fc2832a4b9d5"/>
				</subject>
		
				<entry>
					<flag>
						<coding>
       <system value="https://fhir.nhs.uk/STU3/ITK-PatientMedicationChangeType-1"/>
       <code value="09"/>
       <display value="Active"/>
						</coding>
					</flag>
					<item>
						<reference value="urn:uuid:28ed9a1b-429a-47e4-8c78-1c1ec20b71e8"/>
					</item>
				</entry>
				<entry>
					<flag>
						<coding>
       <system value="https://fhir.nhs.uk/STU3/ITK-PatientMedicationChangeType-1"/>
       <code value="09"/>
       <display value="Active"/>
						</coding>
					</flag>
					<item>
						<reference value="urn:uuid:18a9230b-4cab-43e6-b62f-2a497d644782"/>
					</item>
				</entry>
				<entry>
					<flag>
						<coding>
       <system value="https://fhir.nhs.uk/STU3/ITK-PatientMedicationChangeType-1"/>
       <code value="09"/>
       <display value="Active"/>
						</coding>
					</flag>
					<item>
						<reference value="urn:uuid:120b2c23-f7dc-47e7-9d63-849fb781e0bd"/>
					</item>
				</entry>
				<entry>
					<flag>
						<coding>
       <system value="https://fhir.nhs.uk/STU3/ITK-PatientMedicationChangeType-1"/>
       <code value="09"/>
       <display value="Active"/>
						</coding>
					</flag>
					<item>
						<reference value="urn:uuid:61d60187-aeb5-43b7-8ac7-c3671082e415"/>
					</item>
				</entry>
				<entry>
					<flag>
						<coding>
       <system value="https://fhir.nhs.uk/STU3/ITK-PatientMedicationChangeType-1"/>
       <code value="09"/>
       <display value="Active"/>
						</coding>
					</flag>
					<item>
						<reference value="urn:uuid:bba57bf0-40d0-497d-ba44-b6cbf61d603d"/>
					</item>
				</entry>
				<entry>
					<flag>
						<coding>
       <system value="https://fhir.nhs.uk/STU3/ITK-PatientMedicationChangeType-1"/>
       <code value="09"/>
       <display value="Active"/>
						</coding>
					</flag>
					<item>
						<reference value="urn:uuid:4dc87d17-ea26-496f-9693-f2983ee23ae5"/>
					</item>
				</entry>
			</List>
		</resource>
	</entry>
	<!--Medication Statement Example 1-->
	<entry>
		<fullUrl value="urn:uuid:28ed9a1b-429a-47e4-8c78-1c1ec20b71e8"/>
		<resource>
			<MedicationStatement>
				<id value="28ed9a1b-429a-47e4-8c78-1c1ec20b71e8"/>
				<meta>
     <profile value="https://fhir.nhs.uk/STU3/StructureDefinition/CareConnect-ITK-MedicationStatement-1"/>
				</meta>
		
			
				<status value="active"/>
				<medicationReference>
					<reference value="urn:uuid:51eece1c-0f88-47f8-a83c-068cb6c1dcea"/>
			</medicationReference>
				<subject>
					<reference value="urn:uuid:c8225cc8-8026-466f-80f8-fc2832a4b9d5"/>
			</subject>
    <taken value="y"/>
				<dosage>
					<text value="Take one tablet daily"/>
					<timing>
						<repeat>
							<frequency value="1"/>
							<period value="1"/>
       <periodUnit value="d"/>
						</repeat>
					</timing>
					<asNeededBoolean value="false"/>
					<route>
						<coding>
							<system value="http://snomed.info/sct"/>
       <code value="26643006"/>
							<display value="Oral"/>
						</coding>
					</route>
     <doseQuantity>
 <value value="2.5"/> 
      <unit value="mg"/> 
      <system value="http://unitsofmeasure.org"/> 
      <code value="mg"/> 
     </doseQuantity>
					<maxDosePerPeriod>
						<numerator>
							<value value="1"/>
							<unit value="Tablet"/>
							<system value="http://snomed.info/sct"/>
							<code value="385055001"/>
						</numerator>
						<denominator>
							<value value="1"/>
							<system value="http://unitsofmeasure.org"/>
							<code value="d"/>
						</denominator>
					</maxDosePerPeriod>
				</dosage>
			</MedicationStatement>
		</resource>
	</entry>
	<!--Medication Statement Example 2-->
	<entry>
		<fullUrl value="urn:uuid:18a9230b-4cab-43e6-b62f-2a497d644782"/>
		<resource>
			<MedicationStatement>
				<id value="18a9230b-4cab-43e6-b62f-2a497d644782"/>
				<meta>
     <profile value="https://fhir.nhs.uk/STU3/StructureDefinition/CareConnect-ITK-MedicationStatement-1"/>
				</meta>
			
			
				<status value="active"/>
				<medicationCodeableConcept>
					<coding>
						<system value="http://snomed.info/sct"/>
						<code value="407847009"/>
      <display value="Omeprazole 20mg gastro-resistant tablets"/>
					</coding>
				</medicationCodeableConcept>
    <subject>
					<reference value="urn:uuid:c8225cc8-8026-466f-80f8-fc2832a4b9d5"/>
    </subject>
    <taken value="y"/>
				<dosage>
					<text value="Take one tablet daily as needed"/>
					<timing>
						<repeat>
							<frequency value="1"/>
							<period value="1"/>
       <periodUnit value="d"/>
						</repeat>
					</timing>
					<asNeededBoolean value="true"/>
					<route>
						<coding>
							<system value="http://snomed.info/sct"/>
       <code value="26643006"/>
							<display value="Oral"/>
						</coding>
					</route>
     <doseQuantity>
      <value value="20"/> 
      <unit value="mg"/> 
      <system value="http://unitsofmeasure.org"/> 
      <code value="mg"/> 
     </doseQuantity>
					<maxDosePerPeriod>
						<numerator>
							<value value="1"/>
							<unit value="Tablet"/>
							<system value="http://snomed.info/sct"/>
							<code value="385055001"/>
						</numerator>
						<denominator>
							<value value="1"/>
							<system value="http://unitsofmeasure.org"/>
							<code value="d"/>
						</denominator>
					</maxDosePerPeriod>
				</dosage>
			</MedicationStatement>
		</resource>
	</entry>
	<!--Medication Statement Example 3-->
	<entry>
		<fullUrl value="urn:uuid:120b2c23-f7dc-47e7-9d63-849fb781e0bd"/>
		<resource>
			<MedicationStatement>
				<id value="120b2c23-f7dc-47e7-9d63-849fb781e0bd"/>
				<meta>
     <profile value="https://fhir.nhs.uk/STU3/StructureDefinition/CareConnect-ITK-MedicationStatement-1"/>
				</meta>
			
				<status value="active"/>
				<medicationCodeableConcept>
					<coding>
						<system value="http://snomed.info/sct"/>
						<code value="319781007"/>
      <display value="Aspirin 75mg gastro-resistant tablets"/>
					</coding>
				</medicationCodeableConcept>
    <subject>
					<reference value="urn:uuid:c8225cc8-8026-466f-80f8-fc2832a4b9d5"/>
    </subject>
    <taken value="y"/>
				<dosage>
					<text value="Take one tablet daily"/>
					<timing>
						<repeat>
							<frequency value="1"/>
							<period value="1"/>
       <periodUnit value="d"/>
						</repeat>
					</timing>
					<asNeededBoolean value="true"/>
					<route>
						<coding>
							<system value="http://snomed.info/sct"/>
       <code value="26643006"/>
							<display value="Oral"/>
						</coding>
					</route>
     <doseQuantity>
     <value value="75"/> 
      <unit value="mg"/> 
      <system value="http://unitsofmeasure.org"/> 
      <code value="mg"/> 
     </doseQuantity>
					<maxDosePerPeriod>
						<numerator>
							<value value="1"/>
							<unit value="Tablet"/>
							<system value="http://snomed.info/sct"/>
							<code value="385055001"/>
						</numerator>
						<denominator>
							<value value="1"/>
							<system value="http://unitsofmeasure.org"/>
							<code value="d"/>
						</denominator>
					</maxDosePerPeriod>
				</dosage>
			</MedicationStatement>
		</resource>
	</entry>
	<!--Medication Statement Example 4-->
	<entry>
		<fullUrl value="urn:uuid:61d60187-aeb5-43b7-8ac7-c3671082e415"/>
		<resource>
			<MedicationStatement>
				<id value="61d60187-aeb5-43b7-8ac7-c3671082e415"/>
				<meta>
     <profile value="https://fhir.nhs.uk/STU3/StructureDefinition/CareConnect-ITK-MedicationStatement-1"/>
				</meta>
			
				<status value="active"/>
				<medicationCodeableConcept>
					<coding>
						<system value="http://snomed.info/sct"/>
      <code value="319799004"/>
      <display value="Clopidogrel 75mg tablets"/>
					</coding>
				</medicationCodeableConcept>
    <subject>
					<reference value="urn:uuid:c8225cc8-8026-466f-80f8-fc2832a4b9d5"/>
    </subject>
    <taken value="y"/>
				<dosage>
					<text value="Take one tablet daily"/>
					<timing>
						<repeat>
							<frequency value="1"/>
							<period value="1"/>
       <periodUnit value="d"/>
						</repeat>
					</timing>
     <asNeededBoolean value="false"/>
					<route>
						<coding>
							<system value="http://snomed.info/sct"/>
       <code value="26643006"/>
							<display value="Oral"/>
						</coding>
					</route>
     <doseQuantity>
     <value value="75"/> 
      <unit value="mg"/> 
      <system value="http://unitsofmeasure.org"/> 
      <code value="mg"/> 
     </doseQuantity>
					<maxDosePerPeriod>
						<numerator>
							<value value="1"/>
							<unit value="Tablet"/>
							<system value="http://snomed.info/sct"/>
							<code value="385055001"/>
						</numerator>
						<denominator>
							<value value="1"/>
							<system value="http://unitsofmeasure.org"/>
							<code value="d"/>
						</denominator>
					</maxDosePerPeriod>
				</dosage>
			</MedicationStatement>
		</resource>
	</entry>
	<!--Medication Statement Example 5-->
	<entry>
		<fullUrl value="urn:uuid:bba57bf0-40d0-497d-ba44-b6cbf61d603d"/>
		<resource>
			<MedicationStatement>
				<id value="bba57bf0-40d0-497d-ba44-b6cbf61d603d"/>
				<meta>
     <profile value="https://fhir.nhs.uk/STU3/StructureDefinition/CareConnect-ITK-MedicationStatement-1"/>
				</meta>
			
			
				<status value="active"/>
				<medicationCodeableConcept>
					<coding>
						<system value="http://snomed.info/sct"/>
						<code value="320000009"/>
      <display value="Simvastatin 40mg tablets"/>
					</coding>
				</medicationCodeableConcept>
    <subject>
					<reference value="urn:uuid:c8225cc8-8026-466f-80f8-fc2832a4b9d5"/>
    </subject>
    <taken value="y"/>
				<dosage>
					<text value="Take one tablet daily"/>
					<timing>
						<repeat>
							<frequency value="1"/>
							<period value="1"/>
       <periodUnit value="d"/>
						</repeat>
					</timing>
     <asNeededBoolean value="false"/>
					<route>
						<coding>
							<system value="http://snomed.info/sct"/>
       <code value="26643006"/>
							<display value="Oral"/>
						</coding>
					</route>
     <doseQuantity>
      <value value="40"/> 
      <unit value="mg"/> 
      <system value="http://unitsofmeasure.org"/> 
      <code value="mg"/> 
     </doseQuantity>
					<maxDosePerPeriod>
						<numerator>
							<value value="1"/>
							<unit value="Tablet"/>
							<system value="http://snomed.info/sct"/>
							<code value="385055001"/>
						</numerator>
						<denominator>
							<value value="1"/>
							<system value="http://unitsofmeasure.org"/>
							<code value="d"/>
						</denominator>
					</maxDosePerPeriod>
				</dosage>
			</MedicationStatement>
		</resource>
	</entry>
	<!--Medication Statement Example 6-->
	<entry>
		<fullUrl value="urn:uuid:4dc87d17-ea26-496f-9693-f2983ee23ae5"/>
		<resource>
			<MedicationStatement>
				<id value="4dc87d17-ea26-496f-9693-f2983ee23ae5"/>
				<meta>
     <profile value="https://fhir.nhs.uk/STU3/StructureDefinition/CareConnect-ITK-MedicationStatement-1"/>
				</meta>
			
				
				<status value="active"/>
				<medicationCodeableConcept>
					<coding>
						<system value="http://snomed.info/sct"/>
						<code value="318590006"/>
      <display value="Bisoprolol 5mg tablets"/>
					</coding>
				</medicationCodeableConcept>
    <subject>
					<reference value="urn:uuid:c8225cc8-8026-466f-80f8-fc2832a4b9d5"/>
    </subject>
    <taken value="y"/>
				<dosage>
					<text value="Take one tablet daily"/>
					<timing>
						<repeat>
							<frequency value="1"/>
							<period value="1"/>
       <periodUnit value="d"/>
						</repeat>
					</timing>
     <asNeededBoolean value="false"/>
					<route>
						<coding>
							<system value="http://snomed.info/sct"/>
       <code value="26643006"/>
							<display value="Oral"/>
						</coding>
					</route>
     <doseQuantity>
   <value value="5"/> 
      <unit value="mg"/> 
      <system value="http://unitsofmeasure.org"/> 
      <code value="mg"/> 
     </doseQuantity>
					<maxDosePerPeriod>
						<numerator>
							<value value="1"/>
							<unit value="Tablet"/>
							<system value="http://snomed.info/sct"/>
							<code value="385055001"/>
						</numerator>
						<denominator>
							<value value="1"/>
							<system value="http://unitsofmeasure.org"/>
							<code value="d"/>
						</denominator>
					</maxDosePerPeriod>
				</dosage>
			</MedicationStatement>
		</resource>
	</entry>
	<!--Medication Example 1-->
	<entry>
		<fullUrl value="urn:uuid:51eece1c-0f88-47f8-a83c-068cb6c1dcea"/>
		<resource>
			<Medication>
				<id value="51eece1c-0f88-47f8-a83c-068cb6c1dcea"/>
				<meta>
     <profile value="https://fhir.hl7.org.uk/STU3/StructureDefinition/CareConnect-Medication-1"/>
				</meta>
				<code>
					<coding>
						<system value="http://snomed.info/sct"/>
						<code value="408050008"/>
      <display value="Ramipril 2.5mg tablets"/>
					</coding>
				</code>
			</Medication>
		</resource>
	</entry>
	<!--Medication Flag Example 1-->
	<entry>
		<fullUrl value="urn:uuid:ec30578d-c2fd-4c77-a84e-93efde69afb6"/>
		<resource>
			<Flag>
				<id value="ec30578d-c2fd-4c77-a84e-93efde69afb6"/>
				<meta>
     <profile value="https://fhir.nhs.uk/STU3/StructureDefinition/CareConnect-ITK-Medication-Flag-1"/>
				</meta>
    <extension url="https://fhir.nhs.uk/STU3/StructureDefinition/Extension-CareConnect-ITK-MedicationFlagAssociation-1">
					<valueReference>
						<reference value="urn:uuid:28ed9a1b-429a-47e4-8c78-1c1ec20b71e8"/>
					</valueReference>
				</extension>
				<identifier>
					<system value="https://tools.ietf.org/html/rfc4122"/>
					<value value="0420ab64-632a-4477-a16d-cf5afe204b6f"/>
				</identifier>
	<status value="active"/>
				<category>
					<coding>
						<system value="http://hl7.org/fhir/flag-category"/>
						<code value="drug"/>
						<display value="Drug"/>
					</coding>
				</category>
			
			
				<code>
					<coding>
      <system value="https://fhir.hl7.org.uk/STU3/CareConnect-MedicationFlag-1"/>
      <code value="continue-indefinitely"/>
      <display value="Continue Indefinitely"/>
					</coding>
				</code>
	<subject>
					<reference value="urn:uuid:c8225cc8-8026-466f-80f8-fc2832a4b9d5"/>
				</subject>
			</Flag>
		</resource>
	</entry>
	<!--Medication Flag Example 2-->
	<entry>
		<fullUrl value="urn:uuid:6351ec6a-63e3-4656-907d-70eb501d4843"/>
		<resource>
			<Flag>
				<id value="6351ec6a-63e3-4656-907d-70eb501d4843"/>
				<meta>
     <profile value="https://fhir.nhs.uk/STU3/StructureDefinition/CareConnect-ITK-Medication-Flag-1"/>
				</meta>
    <extension url="https://fhir.nhs.uk/STU3/StructureDefinition/Extension-CareConnect-ITK-MedicationFlagAssociation-1">
					<valueReference>
						<reference value="urn:uuid:18a9230b-4cab-43e6-b62f-2a497d644782"/>
					</valueReference>
				</extension>
				<identifier>
					<system value="https://tools.ietf.org/html/rfc4122"/>
					<value value="9f882897-d3fd-42d8-bbde-31ba4a0ff37d"/>
				</identifier>
<status value="active"/>
				<category>
					<coding>
						<system value="http://hl7.org/fhir/flag-category"/>
						<code value="drug"/>
						<display value="Drug"/>
					</coding>
				</category>
				
			
				<code>
					<coding>
      <system value="https://fhir.hl7.org.uk/STU3/CareConnect-MedicationFlag-1"/>
      <code value="continue-indefinitely"/>
      <display value="Continue Indefinitely"/>
					</coding>
				</code>
	<subject>
					<reference value="urn:uuid:c8225cc8-8026-466f-80f8-fc2832a4b9d5"/>
				</subject>
			</Flag>
		</resource>
	</entry>
	<!--Medication Flag Example 3-->
	<entry>
		<fullUrl value="urn:uuid:448ba5a3-cfe1-4b46-832a-4ea6db0d124d"/>
		<resource>
			<Flag>
				<id value="448ba5a3-cfe1-4b46-832a-4ea6db0d124d"/>
				<meta>
     <profile value="https://fhir.nhs.uk/STU3/StructureDefinition/CareConnect-ITK-Medication-Flag-1"/>
				</meta>
    <extension url="https://fhir.nhs.uk/STU3/StructureDefinition/Extension-CareConnect-ITK-MedicationFlagAssociation-1">
					<valueReference>
						<reference value="urn:uuid:120b2c23-f7dc-47e7-9d63-849fb781e0bd"/>
					</valueReference>
				</extension>
				<identifier>
					<system value="https://tools.ietf.org/html/rfc4122"/>
					<value value="4e445adc-9d4d-4359-bb13-019153dbd5c8"/>
				</identifier>
	<status value="active"/>
				<category>
					<coding>
						<system value="http://hl7.org/fhir/flag-category"/>
						<code value="drug"/>
						<display value="Drug"/>
					</coding>
				</category>
			
			
				<code>
					<coding>
      <system value="https://fhir.hl7.org.uk/STU3/CareConnect-MedicationFlag-1"/>
      <code value="continue-indefinitely"/>
      <display value="Continue Indefinitely"/>
					</coding>
				</code>
	<subject>
					<reference value="urn:uuid:c8225cc8-8026-466f-80f8-fc2832a4b9d5"/>
				</subject>
			</Flag>
		</resource>
	</entry>
	<!--Medication Flag Example 4-->
	<entry>
		<fullUrl value="urn:uuid:94422279-41d8-4f85-919d-4ebde0d4d552"/>
		<resource>
			<Flag>
				<id value="94422279-41d8-4f85-919d-4ebde0d4d552"/>
				<meta>
     <profile value="https://fhir.nhs.uk/STU3/StructureDefinition/CareConnect-ITK-Medication-Flag-1"/>
				</meta>
    <extension url="https://fhir.nhs.uk/STU3/StructureDefinition/Extension-CareConnect-ITK-MedicationFlagAssociation-1">
					<valueReference>
						<reference value="urn:uuid:61d60187-aeb5-43b7-8ac7-c3671082e415"/>
					</valueReference>
				</extension>
				<identifier>
					<system value="https://tools.ietf.org/html/rfc4122"/>
					<value value="67acad39-1169-4833-b64c-25190765ea36"/>
				</identifier>
	<status value="active"/>
				<category>
					<coding>
						<system value="http://hl7.org/fhir/flag-category"/>
						<code value="drug"/>
						<display value="Drug"/>
					</coding>
				</category>
			
			
				<code>
					<coding>
      <system value="https://fhir.hl7.org.uk/STU3/CareConnect-MedicationFlag-1"/>
      <code value="do-not-discontinue"/>
      <display value="Do Not discontinue Medication"/>
					</coding>
				</code>
	<subject>
					<reference value="urn:uuid:c8225cc8-8026-466f-80f8-fc2832a4b9d5"/>
				</subject>
			</Flag>
		</resource>
	</entry>
	<!--Medication Flag Example 5-->
	<entry>
		<fullUrl value="urn:uuid:98d56d92-a3c6-49f6-8bdc-d88d8a8c12d6"/>
		<resource>
			<Flag>
				<id value="98d56d92-a3c6-49f6-8bdc-d88d8a8c12d6"/>
				<meta>
					<profile value="https://fhir.hl7.org.uk/StructureDefinition/CareConnect-Medication-Flag-1"/>
				</meta>
				<extension url="https://fhir.hl7.org.uk/StructureDefinition/Extension-CareConnect-MedicationFlagAssociation-1">
					<valueReference>
						<reference value="urn:uuid:bba57bf0-40d0-497d-ba44-b6cbf61d603d"/>
					</valueReference>
				</extension>
				<identifier>
					<system value="https://tools.ietf.org/html/rfc4122"/>
					<value value="5998b26f-b47c-450a-a0cc-409f6b6c9668"/>
				</identifier>
								<status value="active"/>
				<category>
					<coding>
						<system value="http://hl7.org/fhir/flag-category"/>
						<code value="drug"/>
						<display value="Drug"/>
					</coding>
				</category>

			
				<code>
					<coding>
      <system value="https://fhir.hl7.org.uk/STU3/CareConnect-MedicationFlag-1"/>
      <code value="continue-indefinitely"/>
      <display value="Continue Indefinitely"/>
					</coding>
				</code>
	<subject>
					<reference value="urn:uuid:c8225cc8-8026-466f-80f8-fc2832a4b9d5"/>
				</subject>
			</Flag>
		</resource>
	</entry>
	<!--Medication Flag Example 6-->
	<entry>
		<fullUrl value="urn:uuid:432111ff-cea6-4b1d-a159-a5ddb621ef96"/>
		<resource>
			<Flag>
				<id value="432111ff-cea6-4b1d-a159-a5ddb621ef96"/>
				<meta>
     <profile value="https://fhir.nhs.uk/STU3/StructureDefinition/CareConnect-ITK-Medication-Flag-1"/>
				</meta>
				<!--Copied from EDIS - need to correct-->
    <extension url="https://fhir.nhs.uk/STU3/StructureDefinition/Extension-CareConnect-ITK-MedicationFlagAssociation-1">
     <valueReference>
      <reference value="urn:uuid:11baa8fd-b670-47d1-ab3a-183488af5c6e"/>
     </valueReference>
    </extension>
				<identifier>
					<system value="https://tools.ietf.org/html/rfc4122"/>
					<value value="e5f8a4a2-dc01-4b4f-89e8-0d94c5e6b239"/>
				</identifier>
	<status value="active"/>
				<category>
					<coding>
						<system value="http://hl7.org/fhir/flag-category"/>
						<code value="drug"/>
						<display value="Drug"/>
					</coding>
				</category>
			
			
				<code>
					<coding>
      <system value="https://fhir.hl7.org.uk/STU3/CareConnect-MedicationFlag-1"/>
      <code value="do-not-discontinue"/>
      <display value="Do Not discontinue Medication"/>
					</coding>
     <text value="Uptitrate according to BP and HR."/>
				</code>
	<subject>
					<reference value="urn:uuid:c8225cc8-8026-466f-80f8-fc2832a4b9d5"/>
				</subject>
			</Flag>
		</resource>
	</entry>
	<!--Allergies List Example 1-->
	<entry>
		<fullUrl value="urn:uuid:e75e6df9-0c3d-40be-910c-567931d6ab85"/>
		<resource>
			<List>
				<id value="e75e6df9-0c3d-40be-910c-567931d6ab85"/>
				<meta>
     <profile value="https://fhir.nhs.uk/STU3/StructureDefinition/ITK-Allergies-List-1"/>
				</meta>
				<identifier>
					<system value="https://tools.ietf.org/html/rfc4122"/>
					<value value="10333e47-6548-4b20-985e-f6b8372ac592"/>
				</identifier>
	<status value="current"/>
				<mode value="snapshot"/>
				<code>
					<coding>
						<system value="http://hl7.org/fhir/list-example-use-codes"/>
						<code value="allergies"/>
						<display value="Allergies"/>
					</coding>
				</code>
				<subject>
					<reference value="urn:uuid:c8225cc8-8026-466f-80f8-fc2832a4b9d5"/>
				</subject>
			
				<entry>
					<item>
						<reference value="urn:uuid:61988163-6efb-44ba-aef7-7e786e460bde"/>
					</item>
				</entry>
			</List>
		</resource>
	</entry>
	<!--Allergy Intolerance Example 1-->
	<entry>
		<fullUrl value="urn:uuid:61988163-6efb-44ba-aef7-7e786e460bde"/>
		<resource>
			<AllergyIntolerance>
				<id value="61988163-6efb-44ba-aef7-7e786e460bde"/>
				<meta>
     <profile value="https://fhir.hl7.org.uk/STU3/StructureDefinition/CareConnect-AllergyIntolerance-1"/>
				</meta>
				<identifier>
					<system value="https://tools.ietf.org/html/rfc4122"/>
					<value value="06d65f0f-117a-43c6-84ea-f28c3bd664a2"/>
				</identifier>
    <clinicalStatus value="active"/>
    <verificationStatus value="confirmed"/>
    <type value="allergy"/>
    <category value="medication"/>
	<patient>
					<reference value="urn:uuid:c8225cc8-8026-466f-80f8-fc2832a4b9d5"/>
				</patient>
    <onsetDateTime value="2012-01-12T12:00:00+00:00"/>
    				<reaction>
				<substance>
					<coding>
						<system value="http://snomed.info/sct"/>
						<code value="373270004"/>
						<display value="Penicillin"/>
					</coding>
				</substance>				
					<manifestation>
						<coding>
							<system value="http://snomed.info/sct"/>
							<code value="271807003"/>
							<display value="Eruption"/>
						</coding>
					</manifestation>
				</reaction>
			</AllergyIntolerance>
		</resource>
	</entry>
	<!--Allergy Flag Example 1-->
	<entry>
		<fullUrl value="urn:uuid:9756d0fb-29b9-4220-a5ad-61ea284b9474"/>
		<resource>
			<Flag>
				<id value="9756d0fb-29b9-4220-a5ad-61ea284b9474"/>
				<meta>
     <profile value="https://fhir.nhs.uk/STU3/StructureDefinition/ITK-Allergy-Flag-1"/>
				</meta>
    <extension url="https://fhir.nhs.uk/STU3/StructureDefinition/Extension-ITK-AllergyFlagDetail-1">
					<valueReference>
						<reference value="urn:uuid:61988163-6efb-44ba-aef7-7e786e460bde"/>
					</valueReference>
				</extension>
				<identifier>
					<system value="https://tools.ietf.org/html/rfc4122"/>
					<value value="c968dcf3-298f-47d5-af61-ceb9f320e61b"/>
				</identifier>
    <status value="active"/>
				<category>
					<coding>
						<system value="http://snomed.info/sct"/>
						<code value="886921000000105"/>
						<display value="Allergies and adverse reactions"/>
					</coding>
				</category>
			
				<code>
					<coding>
						<system value="http://snomed.info/sct"/>
						<code value="416098002"/>
						<display value="Drug allergy"/>
					</coding>
				</code>
	<subject>
					<reference value="urn:uuid:c8225cc8-8026-466f-80f8-fc2832a4b9d5"/>
				</subject>
			</Flag>
		</resource>
	</entry>
	<!--Condition-Example-1-->
	<entry>
		<fullUrl value="urn:uuid:af25f1cf-207f-46f7-8644-2787d9829981"/>
		<resource>
			<Condition>
				<id value="af25f1cf-207f-46f7-8644-2787d9829981"/>
				<meta>
     <profile value="https://fhir.nhs.uk/STU3/StructureDefinition/CareConnect-ITK-Condition-1"/>
				</meta>
				<identifier>
					<system value="https://tools.ietf.org/html/rfc4122"/>
					<value value="7232d184-c9cd-465c-ae46-3e55cd6fba81"/>
				</identifier>
				
			
	<clinicalStatus value="active"/>
				<verificationStatus value="confirmed"/>
			
			
				<category>
					<coding>
						<system value="https://fhir.hl7.org.uk/CareConnect-ConditionCategory-1"/>
						<code value="diagnosis"/>
						<display value="Diagnosis"/>
					</coding>
				</category>
					<code>
					<coding>
						<system value="http://snomed.info/sct"/>
						<code value="1488382011"/>
						<display value="Acute coronary syndrome"/>
					</coding>
				</code>		
    <subject>
					<reference value="urn:uuid:c8225cc8-8026-466f-80f8-fc2832a4b9d5"/>
    </subject>
    <context>
		<reference value="urn:uuid:9a20cb92-354a-4015-82ec-ab0252efc5b9"/>
    </context>
	<onsetDateTime value="2015-02-12T12:00:00+00:00"/>		
    <assertedDate value="2015-02-12"/>
    	<asserter>
					<reference value="urn:uuid:369d88a8-9f6b-407f-8560-6ee9d7ccc8bb"/>
	</asserter>
<!--EDIS ref to Observation - will need updating for EC-->
 <stage>
     <assessment>
      <reference value="urn:uuid:6b639186-a9cd-43b0-9880-9ddb7902b934"/>
     </assessment>
    </stage>
			</Condition>
		</resource>
	</entry>
	<!--Condition-Example-2 - Changed to Observation - correct this for EC - but is it needed?-->
	<entry>
		<fullUrl value="urn:uuid:ac77f8b2-a387-495a-9c9a-b3dc6c40d2af"/>
		<resource>
   <Observation>
				<id value="ac77f8b2-a387-495a-9c9a-b3dc6c40d2af"/>
				<meta>
     <profile value="https://fhir.nhs.uk/STU3/StructureDefinition/CareConnect-ITK-Observation-1"/>
				</meta>
				<identifier>
					<system value="https://tools.ietf.org/html/rfc4122"/>
					<value value="ed9e49fc-bf96-444f-9369-2c789601c1fb"/>
				</identifier>
    <status value="final"/>
    <code>
     <coding>
      <system value="http://snomed.info/sct"/>
      <code value="251015000"/>
      <display value="Coronary artery finding"/>
     </coding>
    </code>
    <subject>
    <reference value="urn:uuid:c8225cc8-8026-466f-80f8-fc2832a4b9d5"/>
    </subject>
    <context>
    <reference value="urn:uuid:9a20cb92-354a-4015-82ec-ab0252efc5b9"/>
    </context>
    <effectiveDateTime value="2015-02-12T12:00:00+00:00"/>
    <performer>
    <reference value="urn:uuid:369d88a8-9f6b-407f-8560-6ee9d7ccc8bb"/>
    </performer>
   </Observation>
   </resource>
   	</entry>
	<!--Patient-Example-1-->
	<entry>
		<fullUrl value="urn:uuid:c8225cc8-8026-466f-80f8-fc2832a4b9d5"/>
		<resource>
			<Patient>
				<id value="c8225cc8-8026-466f-80f8-fc2832a4b9d5"/>
				<meta>
     <profile value="https://fhir.hl7.org.uk/STU3/StructureDefinition/CareConnect-Patient-1"/>
				</meta>
    <extension url="https://fhir.hl7.org.uk/STU3/StructureDefinition/Extension-CareConnect-EthnicCategory-1">
					<valueCodeableConcept>
						<coding>
       <system value="https://fhir.hl7.org.uk/STU3/CareConnect-EthnicCategory-1"/>
							<code value="A"/>
							<display value="British, Mixed British"/>
						</coding>
					</valueCodeableConcept>
				</extension>
    <extension url="https://fhir.hl7.org.uk/STU3/StructureDefinition/Extension-CareConnect-ReligiousAffiliation-1">
					<valueCodeableConcept>
						<coding>
							<system value="http://snomed.info/sct"/>
							<code value="80587008"/>
       <display value="Jehovah's Witness, follower of religion"/>
						</coding>
					</valueCodeableConcept>
				</extension>
    <extension url="http://hl7.org/fhir/StructureDefinition/patient-cadavericDonor">
     <valueBoolean value="false"/>
				</extension>
    <extension url="https://fhir.hl7.org.uk/STU3/StructureDefinition/Extension-CareConnect-ResidentialStatus-1">
					<valueCodeableConcept>
						<coding>
							<system value="https://fhir.hl7.org.uk/CareConnect-ResidentialStatus-1"/>
							<code value="H"/>
							<display value="UK Resident"/>
						</coding>
					</valueCodeableConcept>
				</extension>
    <extension url="https://fhir.hl7.org.uk/STU3/StructureDefinition/Extension-CareConnect-TreatmentCategory-1">
					<valueCodeableConcept>
						<coding>
       <system value="https://fhir.hl7.org.uk/STU3/CareConnect-TreatmentCategory-1"/>
							<code value="8"/>
							<display value="Not applicable"/>
						</coding>
					</valueCodeableConcept>
				</extension>
    <extension url="https://fhir.hl7.org.uk/STU3/StructureDefinition/Extension-CareConnect-NHSCommunication-1">
					<extension url="language">
						<valueCodeableConcept>
							<coding>
        <system value="https://fhir.hl7.org.uk/STU3/CareConnect-HumanLanguage-1"/>
								<code value="en"/>
								<display value="English"/>
							</coding>
						</valueCodeableConcept>
					</extension>
					<extension url="preferred">
						<valueBoolean value="true"/>
					</extension>
					<extension url="modeOfCommunication">
						<valueCodeableConcept>
							<coding>
        <system value="https://fhir.hl7.org.uk/STU3/CareConnect-LanguageAbilityMode-1"/>
								<code value="ESP"/>
								<display value="Expressed spoken"/>
							</coding>
						</valueCodeableConcept>
					</extension>
					<extension url="modeOfCommunication">
						<valueCodeableConcept>
							<coding>
        <system value="https://fhir.hl7.org.uk/STU3/CareConnect-LanguageAbilityMode-1"/>
								<code value="RWR"/>
								<display value="Received written"/>
							</coding>
						</valueCodeableConcept>
					</extension>
					<extension url="communicationProficiency">
						<valueCodeableConcept>
							<coding>
        <system value="https://fhir.hl7.org.uk/STU3/CareConnect-LanguageAbilityProficiency-1"/>
								<code value="E"/>
								<display value="Excellent"/>
							</coding>
						</valueCodeableConcept>
					</extension>
					<extension url="interpreterRequired">
						<valueBoolean value="false"/>
					</extension>
				</extension>
				<identifier>
     <extension url="https://fhir.hl7.org.uk/STU3/StructureDefinition/Extension-CareConnect-NHSNumberVerificationStatus-1">
						<valueCodeableConcept>
							<coding>
        <system value="https://fhir.hl7.org.uk/STU3/CareConnect-NHSNumberVerificationStatus-1"/>
								<code value="01"/>
								<display value="Number present and verified"/>
							</coding>
						</valueCodeableConcept>
					</extension>
					<system value="https://fhir.nhs.uk/Id/nhs-number"/>
     <value value="135 246 5790"/>
				</identifier>
				<active value="true"/>
				<name>
					<use value="usual"/>
					<family value="Smith"/>
					<given value="Richard"/>
					<prefix value="Mr"/>
				</name>
				<gender value="male"/>
				<birthDate value="1957-01-01"/>
				<address>
					<use value="home"/>
     <line value="21, Grove Street, Overtown"/>
     <city value="Leeds"/>
    <district value="West Yorkshire"/>
					<postalCode value="LS21 1PF"/>
				</address>
				<maritalStatus>
					<coding>
						<system value="http://hl7.org/fhir/v3/MaritalStatus"/>
						<code value="M"/>
						<display value="Married"/>
					</coding>
				</maritalStatus>
				<contact>
					<relationship>
						<coding>
       <system value="https://fhir.nhs.uk/STU3/PersonRelationshipType-1"/>
							<code value="01"/>
							<display value="Spouse"/>
						</coding>
					</relationship>
					<name>
						<use value="usual"/>
						<family value="Smith"/>
						<given value="Joy"/>
						<prefix value="Mrs"/>
					</name>
					<telecom>
						<system value="phone"/>
						<value value="0712345678"/>
						<use value="mobile"/>
					</telecom>
					<telecom>
						<system value="email"/>
						<value value="mrssmith@mymail.com"/>
					</telecom>
					<gender value="female"/>
				</contact>
				</Patient>
						</resource>
							</entry>
 <!--Related person Joy Smith - Check this as taken from EDIS - probably not linked to anything-->
  <entry>
  <fullUrl value="urn:uuid:a1b3f01d-a302-4c4a-92b7-82c1c98d5e14"/>
  <resource>
 <RelatedPerson>
 <id value="a1b3f01d-a302-4c4a-92b7-82c1c98d5e14"/>
  <meta>
     <profile value="https://fhir.nhs.uk/STU3/StructureDefinition/ITK-RelatedPerson-1"/>
    </meta>
	 <patient>
     <reference value="urn:uuid:31686b67-9f20-4644-9a54-193d2f91de57"/>
    </patient>
    <relationship> 
    <coding> 
      <system value="http://hl7.org/fhir/v3/RoleCode"/> 
      <code value="WIFE"/> 
      <display value="wife"/>
    </coding> 
  </relationship> 
    <name> 
    <use value="official"/> 
    <family value="Smith"/> 
    <given value="Joy"/> 
    </name> 
  <telecom> 
    <system value="phone"/> 
    <value value="0712345678"/>
    <use value="mobile"/> 
  </telecom> 
  <gender value="female"/> 
</RelatedPerson>
  </resource>
 </entry>
	<!--Practitioner-Example-1-->
	<entry>
		<fullUrl value="urn:uuid:369d88a8-9f6b-407f-8560-6ee9d7ccc8bb"/>
		<resource>
			<Practitioner>
				<id value="369d88a8-9f6b-407f-8560-6ee9d7ccc8bb"/>
				<meta>
     <profile value="https://fhir.hl7.org.uk/STU3/StructureDefinition/CareConnect-Practitioner-1"/>
				</meta>
				<name>
     <family value="Rastall"/>
     <given value="Paul"/>
     <prefix value="Dr"/>
				</name>
				<telecom>
					<system value="phone"/>
					<value value="01136323200"/>
					<use value="work"/>
				</telecom>
				<address>
					<line value="Leeds Teaching Hospital"/>
					<line value="Great George Street"/>
					<city value="Leeds"/>
					<postalCode value="LS1 3EX"/>
				</address>
				</Practitioner>
		</resource>
	</entry>
	<!--Practitioner-Example-2-->
	<entry>
		<fullUrl value="urn:uuid:0105ae6a-a9a2-416f-b57e-e274ac9a48a2"/>
		<resource>
			<Practitioner>
				<id value="0105ae6a-a9a2-416f-b57e-e274ac9a48a2"/>
				<meta>
     <profile value="https://fhir.hl7.org.uk/STU3/StructureDefinition/CareConnect-Practitioner-1"/>
				</meta>
				<name>
     <family value="Jones"/>
					<given value="Angela"/>
					<prefix value="Mrs"/>
				</name>
				<telecom>
					<system value="phone"/>
					<value value="01136323200"/>
					<use value="work"/>
				</telecom>
		
			</Practitioner>
		</resource>
	</entry>
	<!--Practitioner-Example-3-->
	<entry>
		<fullUrl value="urn:uuid:bfeb7b70-ac1f-4a14-a3b9-5842a9e7b761"/>
		<resource>
			<Practitioner>
				<id value="bfeb7b70-ac1f-4a14-a3b9-5842a9e7b761"/>
				<meta>
     <profile value="https://fhir.hl7.org.uk/STU3/StructureDefinition/CareConnect-Practitioner-1"/>
				</meta>
				<identifier>
     <system value="https://fhir.nhs.uk/Id/sds-user-id"/>
					<value value="GP12345600"/>
				</identifier>
				<name>
					<family value="Lorenzo"/>
					<given value="John"/>
					<prefix value="Dr"/>
				</name>
				<telecom>
					<system value="phone"/>
					<value value="01634111222"/>
					<use value="work"/>
				</telecom>
				<telecom>
					<system value="email"/>
					<value value="John.Lorenzo@MMC.co.uk"/>
				</telecom>
				</Practitioner>
				</resource>
				</entry>
 <!--Practitioner-Example-4-->
 <entry>
  <fullUrl value="urn:uuid:d25fd1c6-2658-4db7-9af0-86c5f95e8ec9"/>
  <resource>
   <Practitioner>
    <id value="d25fd1c6-2658-4db7-9af0-86c5f95e8ec9"/>
    <meta>
     <profile value="https://fhir.hl7.org.uk/STU3/StructureDefinition/CareConnect-Practitioner-1"/>
    </meta>
    <name>
     <family value="Abacus"/>
     <prefix value="Mr"/>
    </name>
    <telecom>
     <system value="phone"/>
     <value value="01136323287"/>
     <use value="work"/>
    </telecom>
    <address>
     <line value="Cramer Ward"/>
     <line value="Leeds General Infirmary"/>
     <line value="Great George Street"/>
     <city value="Leeds"/>
     <postalCode value="LS1 3EX"/>
    </address>
   </Practitioner>
  </resource>
 </entry>
 <entry>
  <fullUrl value="urn:uuid:7016a1b0-9fa4-4f4f-9eef-0922f3b2aa48"/>
  <resource>
   <PractitionerRole>
    <id value="7016a1b0-9fa4-4f4f-9eef-0922f3b2aa48"/>
    <meta>
     <profile value="https://fhir.hl7.org.uk/STU3/StructureDefinition/CareConnect-PractitionerRole-1"/>
    </meta>
    <practitioner>
     <reference value="urn:uuid:6239b7a7-380d-46ff-a1c5-7abc4e68f8bc"/>
    </practitioner>
    <organization>
     <reference value="urn:uuid:12bba528-a08a-448b-946b-7e8008044025"/>
    </organization>
    <code>
     <coding>
      <system value="https://fhir.hl7.org.uk/STU3/CareConnect-SDSJobRoleName-1"/>
      <code value="R0110"/>
      <display value="Specialist Registrar"/>
     </coding>
    </code>
   </PractitionerRole>
  </resource>
 </entry>
 <entry>
  <fullUrl value="urn:uuid:a7922b56-d0da-4437-9c45-901b399e8cc5"/>
  <resource>
   <PractitionerRole>
    <id value="a7922b56-d0da-4437-9c45-901b399e8cc5"/>
    <meta>
     <profile value="https://fhir.hl7.org.uk/STU3/StructureDefinition/CareConnect-PractitionerRole-1"/>
    </meta>
    <practitioner>
     <reference value="urn:uuid:8ece9986-9af0-4882-b0cf-23a96ea7b509"/>
    </practitioner>
    <organization>
     <reference value="urn:uuid:acd640c9-5ff9-41ae-9ef3-07a1d5667140"/>
    </organization>
    <code>
     <coding>
      <system value="https://fhir.hl7.org.uk/STU3/CareConnect-SDSJobRoleName-1"/>
      <code value="R0700"/>
      <display value="Community Nurse"/>
     </coding>
    </code>
   </PractitionerRole>
  </resource>
 </entry>
 <entry>
  <fullUrl value="urn:uuid:98828e88-b869-439d-8a64-10fd2cd7a4cd"/>
  <resource>
   <PractitionerRole>
    <id value="98828e88-b869-439d-8a64-10fd2cd7a4cd"/>
    <meta>
     <profile value="https://fhir.hl7.org.uk/STU3/StructureDefinition/CareConnect-PractitionerRole-1"/>
    </meta>
    <practitioner>
     <reference value="urn:uuid:5e414a77-d394-4248-a631-00e45ddb64a0"/>
    </practitioner>
    <organization>
     <reference value="urn:uuid:f9f24f89-646b-4a19-a6b1-cabfa3b612e1"/>
    </organization>
    <code>
     <coding>
      <system value="https://fhir.hl7.org.uk/STU3/CareConnect-SDSJobRoleName-1"/>
      <code value="R0260"/>
      <display value="General Medical Practitioner"/>
     </coding>
    </code>
   </PractitionerRole>
  </resource>
 </entry>
 <entry>
  <fullUrl value="urn:uuid:51f91436-22f3-4093-bfa9-11a3e84280ee"/>
  <resource>
   <PractitionerRole>
    <id value="51f91436-22f3-4093-bfa9-11a3e84280ee"/>
    <meta>
     <profile value="https://fhir.hl7.org.uk/STU3/StructureDefinition/CareConnect-PractitionerRole-1"/>
    </meta>
    <practitioner>
     <reference value="urn:uuid:d25fd1c6-2658-4db7-9af0-86c5f95e8ec9"/>
    </practitioner>
    <organization>
     <reference value="urn:uuid:12bba528-a08a-448b-946b-7e8008044025"/>
    </organization>
    <code>
     <coding>
      <system value="https://fhir.hl7.org.uk/STU3/CareConnect-SDSJobRoleName-1"/>
      <code value="R0050"/>
      <display value="Consultant"/>
     </coding>
    </code>
   </PractitionerRole>
  </resource>
 </entry>
	<!--Organization-Example-1-->
	<entry>
		<fullUrl value="urn:uuid:e4058bb2-bf1a-47a4-ab10-1471161380a1"/>
		<resource>
			<Organization>
				<id value="e4058bb2-bf1a-47a4-ab10-1471161380a1"/>
				<meta>
     <profile value="https://fhir.hl7.org.uk/STU3/StructureDefinition/CareConnect-Organization-1"/>
				</meta>
				<identifier>
					<system value="https://fhir.nhs.uk/Id/ods-organization-code"/>
					<value value="GP123456"/>
				</identifier>
				<type>
					<coding>
						<system value="http://hl7.org/fhir/organization-type"/>
						<code value="prov"/>
						<display value="Healthcare Provider"/>
					</coding>
				</type>
				<name value="MGP Medical Centre"/>
				<telecom>
					<system value="phone"/>
					<value value="01634111223"/>
					<use value="work"/>
				</telecom>
				<telecom>
					<system value="email"/>
					<value value="Admin@MMC.co.uk"/>
				</telecom>
				<address>
					<use value="work"/>
					<line value="1 MGP House"/>
					<line value="Overtown"/>
					<line value="Leeds"/>
					<line value="LS21 7PA"/>
				</address>
			</Organization>
		</resource>
	</entry>
		<!--Organization-Example-2-->
		<entry>
		<fullUrl value="urn:uuid:12bba528-a08a-448b-946b-7e8008044025"/>
		<resource>
			<Organization>
				<id value="12bba528-a08a-448b-946b-7e8008044025"/>
				<meta>
     <profile value="https://fhir.hl7.org.uk/STU3/StructureDefinition/CareConnect-Organization-1"/>
				</meta>
				<identifier>
					<system value="https://fhir.nhs.uk/Id/ods-organization-code"/>
					<value value="RR8"/>
				</identifier>
				<type>
					<coding>
						<system value="http://hl7.org/fhir/organization-type"/>
						<code value="prov"/>
						<display value="Healthcare Provider"/>
					</coding>
				</type>
				<name value="Leeds Teaching Hospitals NHS Trust"/>
				<telecom>
					<system value="phone"/>
					<value value="01132433144"/>
					<use value="work"/>
				</telecom>
				<address>
					<line value="Leeds Teaching Hospitals NHS Trust"/>
					<line value="St James's University Hospital"/>
					
					<line value="Beckett Street"/>
					<city value="Leeds"/>
					<postalCode value="LS9 7TF"/>
				</address>
			</Organization>
		</resource>
	</entry>
	<!--Organization-Example-3-->
	<entry>
		<fullUrl value="urn:uuid:8c7377c5-4d72-43c2-8ae3-40b5713eb04c"/>
		<resource>
			<Organization>
				<id value="8c7377c5-4d72-43c2-8ae3-40b5713eb04c"/>
				<meta>
				  <profile value="https://fhir.hl7.org.uk/STU3/StructureDefinition/CareConnect-Organization-1"/>
				</meta>
				<identifier>
					<system value="https://fhir.nhs.uk/Id/ods-organization-code"/>
					<value value="RY6"/>
				</identifier>
				<type>
					<coding>
						<system value="http://hl7.org/fhir/organization-type"/>
						<code value="prov"/>
						<display value="Healthcare Provider"/>
					</coding>
				</type>
				<name value="Leeds Community Healthcare NHS Trust"/>
				<telecom>
					<system value="phone"/>
					<value value="01136323200"/>
					<use value="work"/>
				</telecom>
				<address>
					<line value="Leeds Community Healthcare NHS Trust"/>
					<line value="First Floor, Stockdale House"/>
					<line value="Headingley Office Park"/>
					<line value="Victoria Road"/>
					<city value="Leeds"/>
					<postalCode value="LS6 1PF"/>
				</address>
			</Organization>
		</resource>
	</entry>
	<!--Location-Example-1-->
	<entry>
		<fullUrl value="urn:uuid:50ed9220-2a96-47ba-9c28-d4a1e3ecd748"/>
		<resource>
			<Location>
				<id value="50ed9220-2a96-47ba-9c28-d4a1e3ecd748"/>
				<meta>
     <profile value="https://fhir.hl7.org.uk/STU3/StructureDefinition/CareConnect-Location-1"/>
				</meta>
				<name value="Accident and Emergency department of Leeds Teaching Hospital"/>
				<type>
					<coding>
						<system value="http://snomed.info/sct"/>
						<code value="225728007"/>
						<display value="Accident and Emergency department"/>
					</coding>
				</type>
			</Location>
		</resource>
	</entry>
</Bundle>
