<?xml version="1.0" encoding="UTF-8"?>
<Bundle xmlns="http://hl7.org/fhir" xmlns:xsi="http://www.w3.org/2001/XMLSchema-instance" xsi:schemaLocation="http://hl7.org/fhir file:///C:/scratch/stu3/bundle.xsd">
	<id value="e6492db3-3788-4519-bebd-2bdf7d7236d8"/>
	<meta>
		<profile value="https://fhir.nhs.uk/STU3/StructureDefinition/ITK-Message-Bundle-1"/>
	</meta>
	<identifier>
		<value value="a3940bf5-b82e-4c4f-9477-9bbe6861d634"/>
	</identifier>
	<type value="message"/>
	<entry>
		<fullUrl value="urn:uuid:a4409d7c-b613-477c-b623-87e60406c2f0"/>
		<resource>
			<MessageHeader>
				<id value="a4409d7c-b613-477c-b623-87e60406c2f0"/>
				<meta>
					<profile value="https://fhir.nhs.uk/STU3/StructureDefinition/ITK-MessageHeader-2"/>
				</meta>
				<extension url="https://fhir.nhs.uk/STU3/StructureDefinition/Extension-ITK-MessageHandling-2">
					<extension url="BusAckRequested">
						<valueBoolean value="true"/>
					</extension>
					<extension url="InfAckRequested">
						<valueBoolean value="true"/>
					</extension>
					<extension url="RecipientType">
						<valueCoding>
							<system value="https://fhir.nhs.uk/STU3/CodeSystem/ITK-RecipientType-1"/>
							<code value="FI"/>
							<display value="For Information"/>
						</valueCoding>
					</extension>
					<extension url="Priority">
						<valueCoding>
							<system value="https://fhir.nhs.uk/STU3/CodeSystem/ITK-Priority-1"/>
							<code value="routine"/>
							<display value="Routine"/>
						</valueCoding>
					</extension>
					<extension url="MessageDefinition">
						<valueReference>
							<reference value="https://fhir.nhs.uk/STU3/MessageDefinition/ITK-EDIS-MessageDefinition-1"/>
						</valueReference>
					</extension>
				</extension>
				<event>
					<system value="https://fhir.nhs.uk/STU3/CodeSystem/ITK-MessageEvent-2"/>
					<code value="ITK004M"/>
					<display value="EMS PDS Update Event"/>
				</event>
				<receiver>
					<reference value="c7d0d92f-4db9-4ab0-89c8-375afca971ad"/>
				</receiver>
				<sender>
					<reference value="5ef279cb-f558-4c4f-a9fd-baacfc52404a"/>
				</sender>
				<timestamp value="2017-01-23T10:10:16+00:00"/>
				<source>
					<endpoint value="1.2.826.0.1285.0.2.0.107"/>
				</source>
				<focus>
					<reference value="c7d0d92f-4db9-4ab0-89c8-375afca971ad"/>
				</focus>
			</MessageHeader>
		</resource>
	</entry>
	<!--Practitioner-->
	<entry>
		<fullUrl value="urn:uuid:174a24b7-d7fa-4283-864e-fded75c5c911"/>
		<resource>
			<Practitioner>
				<id value="174a24b7-d7fa-4283-864e-fded75c5c911"/>
				<meta>
					<profile value="https://fhir.nhs.uk/STU3/StructureDefinition/CareConnect-ITK-Header-Practitioner-1"/>
				</meta>
				<identifier>
					<system value="https://fhir.nhs.uk/Id/sds-user-id"/>
					<value value="033345750518"/>
				</identifier>
				<name>
					<family value="Rastall"/>
					<given value="Paul"/>
					<prefix value="Dr"/>
				</name>
			</Practitioner>
		</resource>
	</entry>
	<!--Organization-->
	<entry>
		<fullUrl value="urn:uuid:c7d0d92f-4db9-4ab0-89c8-375afca971ad"/>
		<resource>
			<Organization>
				<id value="c7d0d92f-4db9-4ab0-89c8-375afca971ad"/>
				<meta>
					<profile value="https://fhir.nhs.uk/STU3/StructureDefinition/CareConnect-ITK-Header-Organization-1"/>
				</meta>
				<identifier>
					<system value="https://fhir.nhs.uk/Id/ods-site-code"/>
					<value value="B86056"/>
				</identifier>
			</Organization>
		</resource>
	</entry>
	<entry>
		<fullUrl value="urn:uuid:7f684f03-3159-444e-8714-fc333a59cb01"/>
		<resource>
			<!-- An example message bundle, in this case an outline example containing an EMS-PDS RelatedPerson -->
			<Bundle xmlns="http://hl7.org/fhir" xmlns:xsi="http://www.w3.org/2001/XMLSchema-instance">
				<id value="7f684f03-3159-444e-8714-fc333a59cb01"/>
				<meta>
					<profile value="https://fhir.nhs.uk/STU3/StructureDefinition/EMS-Bundle-1"/>
				</meta>
				<identifier>
					<system value="https://tools.ietf.org/html/rfc4122"/>
					<value value="01ff5625-bcba-4c94-8dec-af09756419dd"/>
				</identifier>
				<type value="message"/>
				<!--Entry for MessageHeader with id, timestamp, event type, source, responsible/publishing organization, communication-->
				<entry>
					<fullUrl value="urn:uuid:06b750f6-50e6-4890-9599-16cb32d8dcd9"/>
					<resource>
						<MessageHeader>
							<id value="06b750f6-50e6-4890-9599-16cb32d8dcd9"/>
							<meta>
								<profile value="https://fhir.nhs.uk/STU3/StructureDefinition/EMS-MessageHeader-1"/>
							</meta>
							<extension url="https://fhir.nhs.uk/STU3/StructureDefinition/Extension-EMS-MessageEventType-1">
								<valueCodeableConcept>
									<coding>
										<system value="https://fhir.nhs.uk/STU3/CodeSystem/EMS-MessageEventType-1"/>
										<code value="new"/>
										<display value="New event message"/>
									</coding>
								</valueCodeableConcept>
							</extension>
							<event>
								<system value="https://fhir.nhs.uk/STU3/CodeSystem/EMS-EventType-1"/>
								<code value="PDS004"/>
								<display value="PDS Related Person"/>
							</event>
							<timestamp value="2017-11-01T15:00:00+00:00"/>
							<source>
								<endpoint value="urn:nhs-uk:addressing:ods:X26"/>
							</source>
							<responsible>
								<reference value="urn:uuid:5ef279cb-f558-4c4f-a9fd-baacfc52404a"/>
								<display value="NHS DIGITAL"/>
							</responsible>
							<focus>
								<reference value="urn:uuid:fff2d30f-2c2c-4c0b-bbd0-e61e9992eeab"/>
							</focus>
						</MessageHeader>
					</resource>
				</entry>
				<!--Entry for responsible/publishing organization i.e. NHS Digital-->
				<entry>
					<fullUrl value="urn:uuid:5ef279cb-f558-4c4f-a9fd-baacfc52404a"/>
					<resource>
						<Organization>
							<id value="5ef279cb-f558-4c4f-a9fd-baacfc52404a"/>
							<meta>
								<profile value="https://fhir.hl7.org.uk/STU3/StructureDefinition/CareConnect-Organization-1"/>
							</meta>
							<identifier>
								<system value="https://fhir.nhs.uk/Id/ods-organization-code"/>
								<value value="X26"/>
							</identifier>
							<name value="NHS DIGITAL"/>
							<address>
								<line value="1 TREVELYAN SQUARE"/>
								<line value="BOAR LANE"/>
								<city value="LEEDS"/>
								<district value="WEST YORKSHIRE"/>
								<postalCode value="LS1 6AE"/>
							</address>
						</Organization>
					</resource>
				</entry>
				<!--Entry for service type within the Organization i.e. PDS-->
				<entry>
					<fullUrl value="urn:uuid:997fbeb0-7cd8-4003-84fd-8e63a03b0141"/>
					<resource>
						<HealthcareService>
							<id value="997fbeb0-7cd8-4003-84fd-8e63a03b0141"/>
							<meta>
								<profile value="https://fhir.nhs.uk/STU3/StructureDefinition/EMS-HealthcareService-1"/>
							</meta>
							<identifier>
								<system value="https://tools.ietf.org/html/rfc4122"/>
								<value value="7deba303-9570-4379-ab1f-541b276ac918"/>
							</identifier>
							<providedBy>
								<reference value="urn:uuid:b834d806-c076-11e7-abc4-cec278b6b50a"/>
								<display value="NHS DIGITAL"/>
							</providedBy>
							<type>
								<coding>
									<system value="https://fhir.nhs.uk/STU3/CodeSystem/EMS-HealthcareServiceType-1"/>
									<code value="PDS"/>
									<display value="Personal Demographics Service"/>
								</coding>
							</type>
						</HealthcareService>
					</resource>
				</entry>
				<!--Entry for communication for the event message, with reference to subject and payload-->
				<entry>
					<fullUrl value="urn:uuid:fff2d30f-2c2c-4c0b-bbd0-e61e9992eeab"/>
					<resource>
						<Communication>
							<id value="fff2d30f-2c2c-4c0b-bbd0-e61e9992eeab"/>
							<meta>
								<profile value="https://fhir.nhs.uk/STU3/StructureDefinition/EMS-Communication-1"/>
							</meta>
							<identifier>
								<system value="https://tools.ietf.org/html/rfc4122"/>
								<value value="eb44b803-6fd6-4dbd-9388-b20637d328e8"/>
							</identifier>
							<status value="completed"/>
							<subject>
								<reference value="urn:uuid:dffd2ca0-dc21-11e7-9296-cec278b6b50a"/>
								<display value="DAWKINS, Jack"/>
							</subject>
							<payload>
								<contentReference>
									<reference value="urn:uuid:dffd2ca0-dc21-11e7-9296-cec278b6b50a"/>
									<display value="DAWKINS, Jack"/>
								</contentReference>
							</payload>
						</Communication>
					</resource>
				</entry>
				<!--Entry for communication for the Patient with a related person.-->
				<entry>
					<fullUrl value="urn:uuid:dffd2ca0-dc21-11e7-9296-cec278b6b50a"/>
					<resource>
						<Patient>
							<id value="dffd2ca0-dc21-11e7-9296-cec278b6b50a"/>
							<meta>
								<profile value="https://fhir.hl7.org.uk/STU3/StructureDefinition/CareConnect-Patient-1"/>
							</meta>
							<extension url="https://fhir.hl7.org.uk/STU3/StructureDefinition/Extension-CareConnect-NHSCommunication-1">
								<extension url="language">
									<valueCodeableConcept>
										<coding>
											<system value="	https://fhir.hl7.org.uk/STU3/CodeSystem/CareConnect-HumanLanguage-1"/>
											<code value="en"/>
											<display value="English"/>
										</coding>
									</valueCodeableConcept>
								</extension>
								<extension url="interpreterRequired">
									<valueBoolean value="false"/>
								</extension>
							</extension>
							<identifier>
								<extension url="https://fhir.hl7.org.uk/STU3/StructureDefinition/Extension-CareConnect-NHSNumberVerificationStatus-1">
									<valueCodeableConcept>
										<coding>
											<system value="https://fhir.hl7.org.uk/STU3/CareConnect-NHSNumberVerificationStatus-1"/>
											<code value="01"/>
											<display value="Number present and verified"/>
										</coding>
									</valueCodeableConcept>
								</extension>
								<system value="https://fhir.nhs.uk/Id/nhs-number"/>
								<value value="9912003888"/>
							</identifier>
							<name>
								<use value="usual"/>
								<family value="DAWKINS"/>
								<given value="Jack"/>
							</name>
							<gender value="male"/>
							<birthDate value="2017-10-02">
								<extension url="http://hl7.org/fhir/StructureDefinition/patient-birthTime">
									<valueDateTime value="2017-10-02T20:12:00+00:00"/>
								</extension>
							</birthDate>
							<address>
								<use value="home"/>
								<line value="4 Sandmoor Drive"/>
								<city value="LEEDS"/>
								<postalCode value="LS17 7DF"/>
							</address>
							<generalPractitioner>
								<reference value="urn:uuid:174a24b7-d7fa-4283-864e-fded75c5c911"/>
								<display value="SHADWELL MEDICAL CENTRE"/>
							</generalPractitioner>
						</Patient>
					</resource>
				</entry>
				<!--Entry for organisation for current GP with ODS identifier for the primary care organisation with which the patient is registered (GP Practice code)-->
				<entry>
					<fullUrl value="urn:uuid:174a24b7-d7fa-4283-864e-fded75c5c911"/>
					<resource>
						<Organization>
							<id value="174a24b7-d7fa-4283-864e-fded75c5c911"/>
							<meta>
								<profile value="https://fhir.hl7.org.uk/STU3/StructureDefinition/CareConnect-Organization-1"/>
							</meta>
							<identifier>
								<system value="https://fhir.nhs.uk/Id/ods-site-code"/>
								<value value="B86056"/>
							</identifier>
							<name value="SHADWELL MEDICAL CENTRE"/>
							<partOf>
								<reference value="urn:uuid:de282fac-8d4d-432a-8683-f008485ae48c"/>
								<display value="NHS LEEDS NORTH CCG"/>
							</partOf>
						</Organization>
					</resource>
				</entry>
				<!--Entry for organisation with ODS identifier for the primary care organisation commissioning the care.-->
				<entry>
					<fullUrl value="urn:uuid:de282fac-8d4d-432a-8683-f008485ae48c"/>
					<resource>
						<Organization>
							<id value="de282fac-8d4d-432a-8683-f008485ae48c"/>
							<meta>
								<profile value="https://fhir.hl7.org.uk/STU3/StructureDefinition/CareConnect-Organization-1"/>
							</meta>
							<identifier>
								<system value="https://fhir.nhs.uk/Id/ods-organization-code"/>
								<value value="02V"/>
							</identifier>
							<name value="NHS LEEDS NORTH CCG"/>
						</Organization>
					</resource>
				</entry>
				<entry>
					<fullUrl value="urn:uuid:6054b5e9-cb61-4dbf-b0e7-f907856c1e7f"/>
					<resource>
						<RelatedPerson>
							<id value="6054b5e9-cb61-4dbf-b0e7-f907856c1e7f"/>
							<meta>
								<profile value="https://fhir.nhs.uk/STU3/StructureDefinition/EMS-PDS-RelatedPerson-1"/>
							</meta>
							<extension url="https://fhir.nhs.uk/STU3/StructureDefinition/Extension-EMS-PDS-RelatedPersonRole-1">
								<valueCodeableConcept>
									<coding>
										<system value="https://fhir.nhs.uk/STU3/CodeSystem/EMS-PDS-RelatedPersonRole-1"/>
										<code value="PRS"/>
										<display value="Personal Relationship"/>
									</coding>
								</valueCodeableConcept>
							</extension>
							<extension url="https://fhir.nhs.uk/STU3/StructureDefinition/Extension-EMS-PDS-NextOfKinIndicator-1">
								<valueBoolean value="false"/>
							</extension>
							<extension url="https://fhir.hl7.org.uk/STU3/StructureDefinition/Extension-CareConnect-NHSCommunication-1">
								<extension url="language">
									<valueCodeableConcept>
										<coding>
											<system value="	https://fhir.hl7.org.uk/STU3/CodeSystem/CareConnect-HumanLanguage-1"/>
											<code value="en"/>
											<display value="English"/>
										</coding>
									</valueCodeableConcept>
								</extension>
								<extension url="interpreterRequired">
									<valueBoolean value="false"/>
								</extension>
							</extension>
							<extension url="https://fhir.nhs.uk/STU3/StructureDefinition/Extension-EMS-PDS-PreferredContactMethod-1">
								<valueCodeableConcept>
									<coding>
										<system value="https://fhir.nhs.uk/STU3/CodeSystem/EMS-PDS-PreferredContactMethod-1"/>
										<code value="3"/>
										<display value="Telephone"/>
									</coding>
								</valueCodeableConcept>
							</extension>
							<patient>
								<reference value="urn:uuid:dffd2ca0-dc21-11e7-9296-cec278b6b50a"/>
								<display value="DAWKINS, Jack"/>
							</patient>
							<relationship>
								<coding>
									<system value="https://fhir.nhs.uk/STU3/CodeSystem/EMS-PDS-RelationshipType-1"/>
									<code value="1"/>
									<display value="Spouse"/>
								</coding>
							</relationship>
							<name>
								<use value="official"/>
								<family value="DAWKINS"/>
								<given value="Jill"/>
							</name>
							<telecom>
								<period>
									<start value="2018-01-01"/>
								</period>
							</telecom>
							<address>
								<period>
									<start value="2018-01-01"/>
								</period>
							</address>
							<period>
								<start value="2018-01-01"/>
							</period>
						</RelatedPerson>
					</resource>
				</entry>
			</Bundle>
		</resource>
	</entry>
</Bundle>
