<?xml version="1.0" encoding="UTF-8"?>
<!--This xml example is for illustrative purposes only and has not been clinically verified-->
<Bundle xmlns="http://hl7.org/fhir" xmlns:xsi="http://www.w3.org/2001/XMLSchema-instance" xsi:schemaLocation="http://hl7.org/fhir ../Schemas/bundle.xsd">
	<id value="e9ab79f4-ca79-440d-a125-80c7a8ecb460"/>
	<meta>
		<profile value="https://fhir.nhs.uk/STU3/StructureDefinition/ITK-Document-Bundle-1"/>
	</meta>
	<identifier>
		<system value="https://tools.ietf.org/html/rfc4122"/>
		<value value="f18f5330-a1e0-4f34-9e7d-3fcf6e3f0b8b"/>
	</identifier>
	<type value="document"/>
	<!--Outpatient Letter Composition-->
	<entry>
		<fullUrl value="urn:uuid:db3a110c-3a3d-457d-913b-1473f3be2e32"/>
		<resource>
			<Composition>
				<id value="db3a110c-3a3d-457d-913b-1473f3be2e32"/>
				<meta>
					<profile value="https://fhir.nhs.uk/STU3/StructureDefinition/ITK-OPL-Composition-1"/>
				</meta>
				<!-- Information Recipient 1, the patient -->
				<extension url="https://fhir.nhs.uk/STU3/StructureDefinition/Extension-ITK-InformationRecipient-1">
					<valueReference>
						<reference value="urn:uuid:dc3491e5-a4c0-4d7e-b879-7bd86133e61f"/>
					</valueReference>
				</extension>
				<!-- Information Recipient 2 -->
				<extension url="https://fhir.nhs.uk/STU3/StructureDefinition/Extension-ITK-InformationRecipient-1">
					<valueReference>
						<reference value="urn:uuid:23a936ae-65bb-48cf-9881-86e4b952289f"/>
					</valueReference>
				</extension>
				<!-- Information Recipient 3 -->
				<extension url="https://fhir.nhs.uk/STU3/StructureDefinition/Extension-ITK-InformationRecipient-1">
					<valueReference>
						<reference value="urn:uuid:d4d154f9-7bbc-4760-8cac-00f7974f5e6c"/>
					</valueReference>
				</extension>
				<extension url="https://fhir.nhs.uk/STU3/StructureDefinition/Extension-ITK-CareSettingType-1">
					<valueCodeableConcept>
						<coding>
							<system value="http://snomed.info/sct"/>
							<code value="310160007"/>
							<display value="Ophthalmology service"/>
						</coding>
					</valueCodeableConcept>
				</extension>
				<identifier>
					<value value="1de8bd94-a4ff-4d69-a504-b04dd1e526ea"/>
				</identifier>
				<status value="final"/>
				<type>
					<!--Outpatient letter-->
					<coding>
						<system value="http://snomed.info/sct"/>
						<code value="823681000000100"/>
						<display value="Outpatient letter"/>
					</coding>
				</type>
				<subject>
					<reference value="urn:uuid:dc3491e5-a4c0-4d7e-b879-7bd86133e61f"/>
				</subject>
				<!--Reference to the clinical encounter or type of care this documentation is associated with.-->
				<encounter>
					<reference value="urn:uuid:230a0ced-90c9-4171-93f4-22f9500acb65"/>
				</encounter>
				<!--The composition editing time, when the composition was last logically changed by the author.-->
				<date value="2017-05-19T16:00:00+00:00"/>
				<!--Identifies who is responsible for the information in the composition, not necessarily who typed it in-->
				<author>
					<reference value="urn:uuid:88f1ca61-0200-4943-a066-baf9a1570029"/>
				</author>
				<title value="Outpatient letter"/>
				<!--The code specifying the level of confidentiality of the Composition.-->
				<confidentiality value="V"/>
				<!--Identifies the organization responsible for ongoing maintenance of and access to the composition/document information.-->
				<custodian>
					<reference value="urn:uuid:0b589972-4d02-4636-a090-964fe1952aa9"/>
				</custodian>
				<!--Sections are included here-->
				<section>
					<title value="Attendance details"/>
					<code>
						<coding>
							<system value="http://snomed.info/sct"/>
							<code value="1077881000000105"/>
							<display value="Attendance details"/>
						</coding>
					</code>
					<text>
						<status value="generated"/>
						<div xmlns="http://www.w3.org/1999/xhtml">
							<table width="100%">
								<tbody>
									<tr>
										<td colspan="2" style="width:100%">Dear Dr. O'Reilly,<br/>I had the pleasure of meeting Mr. Perrin in the orthoptic outpatient clinic today, referred by Michael McMonagle, Occupational Therapist, Head Injury Team, St Crispin's Hospital, Donaldstown, DO5 7TP<br/>
										</td>
									</tr>
									<tr>
										<th>Date of appointment/contact</th>
										<td>19-May-2017 15:10</td>
									</tr>
									<tr>
										<th>Contact type</th>
										<td>First attendance</td>
									</tr>
									<tr>
										<th>Consultation method</th>
										<td>Face-to-face</td>
									</tr>
									<tr>
										<th>Responsible Healthcare professional</th>
										<td>Rupert Rigsby</td>
									</tr>
									<tr>
										<th rowspan="2">Seen by</th>
										<td>Rupert Rigsby</td>
									</tr>
									<tr>
										<td>Role: Orthoptist</td>
									</tr>
									<tr>
										<th>Outcome of outpatient attendance</th>
										<td>Discharged (referred to ophthalmologist)</td>
									</tr>
								</tbody>
							</table>
						</div>
					</text>
					<!--Specifies the order applied to the items in the section entries-->
					<orderedBy>
						<coding>
							<system value="http://hl7.org/fhir/list-order"/>
							<code value="system"/>
							<display value="Sorted by System"/>
						</coding>
					</orderedBy>
					<!--Reference to the encounter resource where information for this section can be found-->
					<entry>
						<reference value="urn:uuid:230a0ced-90c9-4171-93f4-22f9500acb65"/>
					</entry>
				</section>
				<section>
					<title value="Referrer details"/>
					<code>
						<coding>
							<system value="http://snomed.info/sct"/>
							<code value="1052891000000108"/>
							<display value="Referrer details"/>
						</coding>
					</code>
					<text>
						<status value="generated"/>
						<div xmlns="http://www.w3.org/1999/xhtml">
							<table width="100%">
								<tbody>
									<tr>
										<th>Referrer details</th>
										<td>
											<p>Michael McMonagle</p>
											<p>Role: Occupational Therapist</p>
											<p>Organisation: Head Injury Team, St Crispin’s Hospital, Donaldstown, DO5 7TP</p>
										</td>
									</tr>
								</tbody>
							</table>
						</div>
					</text>
				</section>
				<section>
					<title value="Diagnoses"/>
					<code>
						<coding>
							<system value="http://snomed.info/sct"/>
							<code value="887161000000102"/>
							<display value="Diagnoses"/>
						</coding>
					</code>
					<text>
						<status value="generated"/>
						<div xmlns="http://www.w3.org/1999/xhtml">
							<table width="100%">
								<tbody>
									<tr>
										<th>Diagnosis</th>
										<td>Right IV cranial nerve palsy</td>
									</tr>
								</tbody>
							</table>
						</div>
					</text>
					<!--Order of section entries-->
					<orderedBy>
						<coding>
							<system value="http://hl7.org/fhir/list-order"/>
							<code value="system"/>
							<display value="Sorted by System"/>
						</coding>
					</orderedBy>
					<!--Reference to the Condition resource which carries supporting information for this section.-->
					<entry>
						<reference value="urn:uuid:b45f2e3c-0aa9-4a14-828e-1eba1b0756a7"/>
						<display value="Right IV cranial nerve palsy"/>
					</entry>
				</section>
				<section>
					<title value="History"/>
					<code>
						<coding>
							<system value="http://snomed.info/sct"/>
							<code value="717121000000105"/>
							<display value="History"/>
						</coding>
					</code>
					<text>
						<status value="generated"/>
						<div xmlns="http://www.w3.org/1999/xhtml">
							<table width="100%">
								<tbody>
									<tr>
										<th>Presenting complaint or issue</th>
										<td>Diplopia and ocular motility defect</td>
									</tr>
								</tbody>
							</table>
						</div>
					</text>
					<orderedBy>
						<coding>
							<system value="http://hl7.org/fhir/list-order"/>
							<code value="system"/>
							<display value="Sorted by System"/>
						</coding>
					</orderedBy>
					<!--Reference to the diagnosis of fourth nerve palsy-->
					<entry>
						<reference value="urn:uuid:b45f2e3c-0aa9-4a14-828e-1eba1b0756a7"/>
					</entry>
					<entry>
						<!--Reference to the procedure for Orthoptic treatment -prism in spectacles-->
						<reference value="urn:uuid:4303abe7-0966-49b1-a89d-4d607189124f"/>
					</entry>
				</section>
				<section>
					<title value="Allergies and adverse reactions"/>
					<!--SNOMED CT classification of section-->
					<code>
						<coding>
							<system value="http://snomed.info/sct"/>
							<code value="886921000000105"/>
							<display value="Allergies and adverse reactions"/>
						</coding>
					</code>
					<text>
						<status value="generated"/>
						<div xmlns="http://www.w3.org/1999/xhtml">
							<table width="100%">
								<tbody>
									<tr>
										<th>Causative agent</th>
										<td>No known allergies or adverse reactions</td>
									</tr>
								</tbody>
							</table>
						</div>
					</text>
					<!--Order of section entries-->
					<orderedBy>
						<coding>
							<system value="http://hl7.org/fhir/list-order"/>
							<code value="system"/>
							<display value="Sorted by System"/>
						</coding>
					</orderedBy>
					<!--Reference to Allergies List as the source of information for this section-->
					<entry>
						<reference value="urn:uuid:02cccb1a-e461-4237-bb64-cb342ea57135"/>
					</entry>
				</section>
				<!--Examination findings-->
				<section>
					<title value="Examination findings"/>
					<code>
						<coding>
							<system value="http://snomed.info/sct"/>
							<code value="715851000000102"/>
							<display value="Examination findings"/>
						</coding>
					</code>
					<text>
						<status value="generated"/>
						<div xmlns="http://www.w3.org/1999/xhtml">
							<table width="100%">
								<tbody>
									<tr>
										<th>Examination</th>
										<td>Ocular mobility testing</td>
									</tr>
									<tr>
										<th>Examination findings</th>
										<td>Right hypertropia</td>
									</tr>
								</tbody>
							</table>
						</div>
					</text>
					<orderedBy>
						<coding>
							<system value="http://hl7.org/fhir/list-order"/>
							<code value="system"/>
							<display value="Sorted by System"/>
						</coding>
					</orderedBy>
				</section>
				<section>
					<title value="Procedures"/>
					<code>
						<coding>
							<system value="http://snomed.info/sct"/>
							<code value="887171000000109"/>
							<display value="Procedures"/>
						</coding>
					</code>
					<text>
						<status value="generated"/>
						<div xmlns="http://www.w3.org/1999/xhtml">
							<table width="100%">
								<tbody>
									<tr>
										<th>Procedure</th>
										<td>
											<p>Fitted a prism on patient's glasses (right side)</p>
										</td>
									</tr>
								</tbody>
							</table>
						</div>
					</text>
					<orderedBy>
						<coding>
							<system value="http://hl7.org/fhir/list-order"/>
							<code value="system"/>
							<display value="Sorted by System"/>
						</coding>
					</orderedBy>
					<!--Reference to procedure-->
					<entry>
						<reference value="urn:uuid:4303abe7-0966-49b1-a89d-4d607189124f"/>
					</entry>
				</section>
				<section>
					<title value="Clinical summary"/>
					<!--SNOMED CT classification of section-->
					<code>
						<coding>
							<system value="http://snomed.info/sct"/>
							<code value="887181000000106"/>
							<display value="Clinical summary"/>
						</coding>
					</code>
					<text>
						<status value="generated"/>
						<div xmlns="http://www.w3.org/1999/xhtml">
							<table width="100%">
								<tbody>
									<tr>
										<th>Clinical Summary</th>
										<td>Referred from the head injury team as patient experiencing diplopia. Diagnosed with a right IV nerve palsy. Fitted a prism on patients glasses to relieve diplopia.</td>
									</tr>
								</tbody>
							</table>
						</div>
					</text>
				</section>
				<section>
					<title value="Plan and requested actions"/>
					<code>
						<coding>
							<system value="http://snomed.info/sct"/>
							<code value="887201000000105"/>
							<display value="Plan and requested actions"/>
						</coding>
					</code>
					<text>
						<status value="generated"/>
						<div xmlns="http://www.w3.org/1999/xhtml">
							<table width="100%">
								<tbody>
									<tr>
										<th>Actions for healthcare professionals</th>
										<td>Referred to ophthalmologist by Rupert Rigsby on 19/05/17</td>
									</tr>
									<tr>
										<th>Actions for patient or their carer</th>
										<td>Patient has been advised to inform the DVLA regarding the diplopia and fresnel prism</td>
									</tr>
								</tbody>
							</table>
						</div>
					</text>
				</section>
				<section>
					<title value="Person completing record"/>
					<code>
						<coding>
							<system value="http://snomed.info/sct"/>
							<code value="887231000000104"/>
							<display value="Person completing record"/>
						</coding>
					</code>
					<text>
						<status value="generated"/>
						<div xmlns="http://www.w3.org/1999/xhtml">
							<table width="100%">
								<tbody>
									<tr>
										<th>Name</th>
										<td>Rupert Rigsby</td>
									</tr>
									<tr>
										<th>Role</th>
										<td>Orthoptist</td>
									</tr>
									<tr>
										<th>Specialty</th>
										<td>Ophthalmology/orthoptics</td>
									</tr>
									<tr>
										<th>Professional identifier</th>
										<td>14569872</td>
									</tr>
									<tr>
										<th>Date and time completed</th>
										<td>19-May-2017 16:00</td>
									</tr>
									<tr>
										<th>Contact details</th>
										<td>Email: orthde@stcrispins.nhs.uk</td>
									</tr>
								</tbody>
							</table>
						</div>
					</text>
				</section>
			</Composition>
		</resource>
	</entry>
	<!--Encounter Example 1-->
	<entry>
		<fullUrl value="urn:uuid:230a0ced-90c9-4171-93f4-22f9500acb65"/>
		<resource>
			<Encounter>
				<id value="230a0ced-90c9-4171-93f4-22f9500acb65"/>
				<meta>
					<profile value="https://fhir.nhs.uk/STU3/StructureDefinition/CareConnect-ITK-Encounter-1"/>
				</meta>
				<identifier>
					<system value="https://tools.ietf.org/html/rfc4122"/>
					<value value="c6fa7540-9044-45a5-a91f-9b41cbb2db5b"/>
				</identifier>
				<status value="finished"/>
				<class>
					<system value="http://hl7.org/fhir/v3-ActEncounterCode"/>
					<code value="AMB"/>
					<display value="ambulatory"/>
					<!--The term ambulatory usually implies that the patient has come to the location and is not assigned to a bed. Sometimes referred to as an outpatient encounter.-->
				</class>
				<!--Specific type of encounter-->
				<type>
					<coding>
						<system value="http://snomed.info/sct"/>
						<code value="325941000000100"/>
						<display value="Face to face assessment"/>
					</coding>
				</type>
				<!--Reference to the patient as the subject of the Encounter-->
				<subject>
					<reference value="urn:uuid:dc3491e5-a4c0-4d7e-b879-7bd86133e61f"/>
				</subject>
				<!--Reference to the participants present during the encounter-->
				<participant>
					<type>
						<coding>
							<system value="http://hl7.org/fhir/v3/ParticipationType"/>
							<code value="PPRF"/>
							<display value="primary performer"/>
						</coding>
					</type>
					<individual>
						<reference value="urn:uuid:88f1ca61-0200-4943-a066-baf9a1570029"/>
					</individual>
				</participant>
				<period>
					<start value="2017-05-19T15:10:00+00:00"/>
					<end value="2017-05-19T16:00:00+00:00"/>
				</period>
				<!--	The list of diagnoses relevant to this encounter-->
				<diagnosis>
					<!--Reason the encounter takes place (resource)-->
					<condition>
						<reference value="urn:uuid:b45f2e3c-0aa9-4a14-828e-1eba1b0756a7"/>
					</condition>
					<role>
						<coding>
							<system value="http://hl7.org/fhir/diagnosis-role"/>
							<code value="CC"/>
							<display value="Chief complaint"/>
						</coding>
					</role>
				</diagnosis>
				<hospitalization>
					<admitSource>
						<coding>
							<system value="http://hl7.org/fhir/admit-source"/>
							<code value="outp"/>
							<display value="From outpatient department"/>
							<!--							Note, the Head Injury Team provide an outpatient service.-->
						</coding>
					</admitSource>
					<!--	Category or kind of location after discharge-->
					<dischargeDisposition>
						<coding>
							<system value="http://hl7.org/fhir/discharge-disposition"/>
							<code value="home"/>
							<display value="Home"/>
						</coding>
					</dischargeDisposition>
				</hospitalization>
			</Encounter>
		</resource>
	</entry>
	<!--Practitioner-Example-->
	<entry>
		<fullUrl value="urn:uuid:88f1ca61-0200-4943-a066-baf9a1570029"/>
		<resource>
			<Practitioner>
				<id value="88f1ca61-0200-4943-a066-baf9a1570029"/>
				<meta>
					<profile value="https://fhir.hl7.org.uk/STU3/StructureDefinition/CareConnect-Practitioner-1"/>
				</meta>
				<name>
					<family value="Rigsby"/>
					<given value="Rupert "/>
					<prefix value="Mr"/>
				</name>
				<telecom>
					<system value="email"/>
					<value value="orthde@stcrispins.nhs.uk"/>
					<use value="work"/>
				</telecom>
				<address>
					<line value="Ophthalmology/orthoptics clinic"/>
					<line value="St Crispin's Hospital"/>
					<city value="Donaldstown"/>
					<postalCode value="DO5 7TP"/>
				</address>
			</Practitioner>
		</resource>
	</entry>
	<!--Diagnoses 1-->
	<entry>
		<fullUrl value="urn:uuid:b45f2e3c-0aa9-4a14-828e-1eba1b0756a7"/>
		<resource>
			<Condition>
				<id value="b45f2e3c-0aa9-4a14-828e-1eba1b0756a7"/>
				<meta>
					<profile value="https://fhir.nhs.uk/STU3/StructureDefinition/CareConnect-ITK-Condition-1"/>
				</meta>
				<identifier>
					<system value="https://tools.ietf.org/html/rfc4122"/>
					<value value="bc8e4fc0-18dc-46b5-9f60-30857b24e42b"/>
				</identifier>
				<clinicalStatus value="active"/>
				<verificationStatus value="confirmed"/>
				<category>
					<coding>
						<system value="https://fhir.hl7.org.uk/STU3/CareConnect-ConditionCategory-1"/>
						<code value="diagnosis"/>
						<display value="Diagnosis"/>
					</coding>
				</category>
				<code>
					<coding>
						<system value="http://snomed.info/sct"/>
						<code value="20610004"/>
						<display value="Fourth nerve palsy"/>
					</coding>
				</code>
				<subject>
					<reference value="urn:uuid:dc3491e5-a4c0-4d7e-b879-7bd86133e61f"/>
				</subject>
				<!--Reference to the encounter-->
				<context>
					<reference value="urn:uuid:230a0ced-90c9-4171-93f4-22f9500acb65"/>
				</context>
				<assertedDate value="2017-05-11"/>
				<asserter>
					<reference value="urn:uuid:88f1ca61-0200-4943-a066-baf9a1570029"/>
				</asserter>
			</Condition>
		</resource>
	</entry>
	<!--Diagnoses 2-->
	<entry>
		<fullUrl value="urn:uuid:b26285f5-aea0-4b1f-b0eb-bfcaa6a5d15c"/>
		<resource>
			<Condition>
				<id value="b26285f5-aea0-4b1f-b0eb-bfcaa6a5d15c"/>
				<meta>
					<profile value="https://fhir.nhs.uk/STU3/StructureDefinition/CareConnect-ITK-Condition-1"/>
				</meta>
				<identifier>
					<system value="https://tools.ietf.org/html/rfc4122"/>
					<value value="455a8faf-ff7f-4b19-88a2-f9907fd34933"/>
				</identifier>
				<clinicalStatus value="active"/>
				<verificationStatus value="confirmed"/>
				<category>
					<coding>
						<system value="https://fhir.hl7.org.uk/STU3/CareConnect-ConditionCategory-1"/>
						<code value="diagnosis"/>
						<display value="Diagnosis"/>
					</coding>
				</category>
				<code>
					<coding>
						<system value="http://snomed.info/sct"/>
						<code value="84229001"/>
						<display value="Fatigue"/>
					</coding>
					<text value="Fatigue. No evidence of inflammatory arthritis."/>
				</code>
				<subject>
					<reference value="urn:uuid:dc3491e5-a4c0-4d7e-b879-7bd86133e61f"/>
				</subject>
				<!--Reference to the encounter-->
				<context>
					<reference value="urn:uuid:230a0ced-90c9-4171-93f4-22f9500acb65"/>
				</context>
				<assertedDate value="2017-05-11"/>
				<asserter>
					<reference value="urn:uuid:88f1ca61-0200-4943-a066-baf9a1570029"/>
				</asserter>
			</Condition>
		</resource>
	</entry>
	<!--Diagnoses 3-->
	<entry>
		<fullUrl value="urn:uuid:07b3cbda-5d14-4fed-b84a-91d77ab500c2"/>
		<resource>
			<Condition>
				<id value="07b3cbda-5d14-4fed-b84a-91d77ab500c2"/>
				<meta>
					<profile value="https://fhir.nhs.uk/STU3/StructureDefinition/CareConnect-ITK-Condition-1"/>
				</meta>
				<identifier>
					<system value="https://tools.ietf.org/html/rfc4122"/>
					<value value="f7d300b6-fb5a-4b99-979f-80af5a94885d"/>
				</identifier>
				<clinicalStatus value="active"/>
				<verificationStatus value="confirmed"/>
				<category>
					<coding>
						<system value="https://fhir.hl7.org.uk/STU3/CareConnect-ConditionCategory-1"/>
						<code value="diagnosis"/>
						<display value="Diagnosis"/>
					</coding>
				</category>
				<code>
					<coding>
						<system value="http://snomed.info/sct"/>
						<code value="46635009"/>
						<display value="Type 1 diabetes mellitus"/>
					</coding>
				</code>
				<subject>
					<reference value="urn:uuid:dc3491e5-a4c0-4d7e-b879-7bd86133e61f"/>
				</subject>
				<!--Reference to the encounter-->
				<context>
					<reference value="urn:uuid:230a0ced-90c9-4171-93f4-22f9500acb65"/>
				</context>
				<assertedDate value="2017-05-11"/>
				<asserter>
					<reference value="urn:uuid:88f1ca61-0200-4943-a066-baf9a1570029"/>
				</asserter>
			</Condition>
		</resource>
	</entry>
	<!--Diagnoses 4-->
	<entry>
		<fullUrl value="urn:uuid:393db67a-1cc8-45b7-b0e2-1f1f5893e542"/>
		<resource>
			<Condition>
				<id value="393db67a-1cc8-45b7-b0e2-1f1f5893e542"/>
				<meta>
					<profile value="https://fhir.nhs.uk/STU3/StructureDefinition/CareConnect-ITK-Condition-1"/>
				</meta>
				<identifier>
					<system value="https://tools.ietf.org/html/rfc4122"/>
					<value value="f7d300b6-fb5a-4b99-979f-80af5a94885d"/>
				</identifier>
				<clinicalStatus value="active"/>
				<verificationStatus value="confirmed"/>
				<category>
					<coding>
						<system value="https://fhir.hl7.org.uk/STU3/CareConnect-ConditionCategory-1"/>
						<code value="diagnosis"/>
						<display value="Diagnosis"/>
					</coding>
				</category>
				<code>
					<coding>
						<system value="http://snomed.info/sct"/>
						<code value="40930008"/>
						<display value="Hypothyroidism"/>
					</coding>
				</code>
				<subject>
					<reference value="urn:uuid:dc3491e5-a4c0-4d7e-b879-7bd86133e61f"/>
				</subject>
				<!--Reference to the encounter-->
				<context>
					<reference value="urn:uuid:230a0ced-90c9-4171-93f4-22f9500acb65"/>
				</context>
				<assertedDate value="2017-05-11"/>
				<asserter>
					<reference value="urn:uuid:88f1ca61-0200-4943-a066-baf9a1570029"/>
				</asserter>
			</Condition>
		</resource>
	</entry>
	<!--Patient-Example-1-->
	<entry>
		<fullUrl value="urn:uuid:dc3491e5-a4c0-4d7e-b879-7bd86133e61f"/>
		<resource>
			<Patient>
				<id value="dc3491e5-a4c0-4d7e-b879-7bd86133e61f"/>
				<meta>
					<profile value="https://fhir.hl7.org.uk/STU3/StructureDefinition/CareConnect-Patient-1"/>
				</meta>
				<extension url="https://fhir.hl7.org.uk/STU3/StructureDefinition/Extension-CareConnect-EthnicCategory-1">
					<valueCodeableConcept>
						<coding>
							<system value="https://fhir.hl7.org.uk/STU3/CareConnect-EthnicCategory-1"/>
							<code value="CA"/>
							<display value="English"/>
						</coding>
					</valueCodeableConcept>
				</extension>
				<extension url="http://hl7.org/fhir/StructureDefinition/patient-cadavericDonor">
					<valueBoolean value="false"/>
				</extension>
				<extension url="https://fhir.hl7.org.uk/STU3/StructureDefinition/Extension-CareConnect-ResidentialStatus-1">
					<valueCodeableConcept>
						<coding>
							<system value="https://fhir.hl7.org.uk/STU3/CareConnect-ResidentialStatus-1"/>
							<code value="H"/>
							<display value="UK Resident"/>
						</coding>
					</valueCodeableConcept>
				</extension>
				<extension url="https://fhir.hl7.org.uk/STU3/StructureDefinition/Extension-CareConnect-TreatmentCategory-1">
					<valueCodeableConcept>
						<coding>
							<system value="https://fhir.hl7.org.uk/STU3/CareConnect-TreatmentCategory-1"/>
							<code value="8"/>
							<display value="Not applicable"/>
						</coding>
					</valueCodeableConcept>
				</extension>
				<extension url="https://fhir.hl7.org.uk/STU3/StructureDefinition/Extension-CareConnect-NHSCommunication-1">
					<extension url="language">
						<valueCodeableConcept>
							<coding>
								<system value="https://fhir.hl7.org.uk/STU3/CareConnect-HumanLanguage-1"/>
								<code value="en"/>
								<display value="English"/>
							</coding>
						</valueCodeableConcept>
					</extension>
					<extension url="preferred">
						<valueBoolean value="true"/>
					</extension>
					<extension url="modeOfCommunication">
						<valueCodeableConcept>
							<coding>
								<system value="https://fhir.hl7.org.uk/STU3/CareConnect-LanguageAbilityMode-1"/>
								<code value="ESP"/>
								<display value="Expressed spoken"/>
							</coding>
						</valueCodeableConcept>
					</extension>
					<extension url="modeOfCommunication">
						<valueCodeableConcept>
							<coding>
								<system value="https://fhir.hl7.org.uk/STU3/CareConnect-LanguageAbilityMode-1"/>
								<code value="RWR"/>
								<display value="Received written"/>
							</coding>
						</valueCodeableConcept>
					</extension>
					<extension url="communicationProficiency">
						<valueCodeableConcept>
							<coding>
								<system value="https://fhir.hl7.org.uk/STU3/CareConnect-LanguageAbilityProficiency-1"/>
								<code value="E"/>
								<display value="Excellent"/>
							</coding>
						</valueCodeableConcept>
					</extension>
					<extension url="interpreterRequired">
						<valueBoolean value="false"/>
					</extension>
				</extension>
				<identifier>
					<extension url="https://fhir.hl7.org.uk/STU3/StructureDefinition/Extension-CareConnect-NHSNumberVerificationStatus-1">
						<valueCodeableConcept>
							<coding>
								<system value="https://fhir.hl7.org.uk/STU3/CareConnect-NHSNumberVerificationStatus-1"/>
								<code value="01"/>
								<display value="Number present and verified"/>
							</coding>
						</valueCodeableConcept>
					</extension>
					<system value="https://fhir.nhs.uk/Id/nhs-number"/>
					<value value="982354321"/>
				</identifier>
				<identifier>
					<use value="usual"/>
					<type>
						<coding>
							<system value="http://hl7.org/fhir/v2/0203"/>
							<code value="MR"/>
							<display value="Medical record number"/>
						</coding>
					</type>
					<system value="urn:uuid:0b589972-4d02-4636-a090-964fe1952aa9"/>
					<value value="TL23764"/>
					<assigner>
						<display value="St Crispin's Hospital"/>
					</assigner>
				</identifier>
				<active value="true"/>
				<name>
					<use value="usual"/>
					<family value="Perrin"/>
					<given value="Reginald"/>
					<prefix value="Mr"/>
				</name>
				<telecom>
					<system value="phone"/>
					<value value="077 6677 7766"/>
					<use value="mobile"/>
				</telecom>
				<telecom>
					<system value="email"/>
					<value value="reginald@perrin.net"/>
					<use value="home"/>
				</telecom>
				<gender value="male"/>
				<birthDate value="1983-04-01"/>
				<address>
					<use value="home"/>
					<line value="5 Acacia Road"/>
					<postalCode value="BM9 6PG"/>
				</address>
			</Patient>
		</resource>
	</entry>
	<!--Practitioner-Example-2-->
	<entry>
		<fullUrl value="urn:uuid:23a936ae-65bb-48cf-9881-86e4b952289f"/>
		<resource>
			<Practitioner>
				<id value="23a936ae-65bb-48cf-9881-86e4b952289f"/>
				<meta>
					<profile value="https://fhir.hl7.org.uk/STU3/StructureDefinition/CareConnect-Practitioner-1"/>
				</meta>
				<name>
					<family value="O`Reilly"/>
					<given value="C"/>
					<prefix value="Dr"/>
				</name>
				<telecom>
					<system value="phone"/>
					<value value="01234 956412"/>
					<use value="work"/>
				</telecom>
			</Practitioner>
		</resource>
	</entry>
	<!--Practitioner role - General Medical Practitioner-->
	<entry>
		<fullUrl value="urn:uuid:fcc956a8-a96f-4bd5-b0b2-196bbb1f0f66"/>
		<resource>
			<PractitionerRole>
				<id value="fcc956a8-a96f-4bd5-b0b2-196bbb1f0f66"/>
				<meta>
					<profile value="https://fhir.hl7.org.uk/STU3/StructureDefinition/CareConnect-PractitionerRole-1"/>
				</meta>
				<practitioner>
					<reference value="urn:uuid:23a936ae-65bb-48cf-9881-86e4b952289f"/>
				</practitioner>
				<organization>
					<reference value="urn:uuid:3eb488e4-f1b1-433d-91ba-e9fe60550211"/>
				</organization>
				<code>
					<coding>
						<system value="https://fhir.hl7.org.uk/STU3/CareConnect-SDSJobRoleName-1"/>
						<code value="R0260"/>
						<display value="General Medical Practitioner"/>
					</coding>
				</code>
			</PractitionerRole>
		</resource>
	</entry>
	<!--Practitioner-Example-,Occupational Therapist-->
	<entry>
		<fullUrl value="urn:uuid:d4d154f9-7bbc-4760-8cac-00f7974f5e6c"/>
		<resource>
			<Practitioner>
				<id value="d4d154f9-7bbc-4760-8cac-00f7974f5e6c"/>
				<meta>
					<profile value="https://fhir.hl7.org.uk/STU3/StructureDefinition/CareConnect-Practitioner-1"/>
				</meta>
				<name>
					<family value="McMonagle"/>
					<given value="Michael "/>
					<prefix value="Mr"/>
				</name>
			</Practitioner>
		</resource>
	</entry>
	<!--Practitioner role - Occupational Therapist-->
	<entry>
		<fullUrl value="urn:uuid:2e91ae72-2e6a-46de-86c4-95d9a3025f5f"/>
		<resource>
			<PractitionerRole>
				<id value="2e91ae72-2e6a-46de-86c4-95d9a3025f5f"/>
				<meta>
					<profile value="https://fhir.hl7.org.uk/STU3/StructureDefinition/CareConnect-PractitionerRole-1"/>
				</meta>
				<practitioner>
					<reference value="urn:uuid:d4d154f9-7bbc-4760-8cac-00f7974f5e6c"/>
				</practitioner>
				<organization>
					<reference value="urn:uuid:784e2b8a-8daa-42f3-8e65-ffe84aee00a5"/>
				</organization>
				<code>
					<coding>
						<system value="https://fhir.hl7.org.uk/STU3/CareConnect-SDSJobRoleName-1"/>
						<code value="R0950"/>
						<display value="Occupational Therapist"/>
					</coding>
				</code>
			</PractitionerRole>
		</resource>
	</entry>
	<!--Practitioner roles -Consultant-->
	<entry>
		<fullUrl value="urn:uuid:cd734ce9-468d-4a36-8dac-e453aa4747e0"/>
		<resource>
			<PractitionerRole>
				<id value="cd734ce9-468d-4a36-8dac-e453aa4747e0"/>
				<meta>
					<profile value="https://fhir.hl7.org.uk/STU3/StructureDefinition/CareConnect-PractitionerRole-1"/>
				</meta>
				<practitioner>
					<reference value="urn:uuid:88f1ca61-0200-4943-a066-baf9a1570029"/>
				</practitioner>
				<organization>
					<reference value="urn:uuid:0b589972-4d02-4636-a090-964fe1952aa9"/>
				</organization>
				<code>
					<coding>
						<system value="https://fhir.hl7.org.uk/STU3/CareConnect-SDSJobRoleName-1"/>
						<code value="R0990"/>
						<display value="Orthoptist"/>
					</coding>
				</code>
			</PractitionerRole>
		</resource>
	</entry>
	<!--Organization-Example-1-->
	<entry>
		<fullUrl value="urn:uuid:3eb488e4-f1b1-433d-91ba-e9fe60550211"/>
		<resource>
			<Organization>
				<id value="3eb488e4-f1b1-433d-91ba-e9fe60550211"/>
				<meta>
					<profile value="https://fhir.hl7.org.uk/STU3/StructureDefinition/CareConnect-Organization-1"/>
				</meta>
				<identifier>
					<system value="https://fhir.nhs.uk/Id/ods-organization-code"/>
					<value value="A111111"/>
				</identifier>
				<type>
					<coding>
						<system value="http://hl7.org/fhir/organization-type"/>
						<code value="prov"/>
						<display value="Healthcare Provider"/>
					</coding>
				</type>
				<name value="Canvas Health Centre"/>
				<telecom>
					<system value="email"/>
					<value value="Admin@MMC.co.uk"/>
				</telecom>
				<address>
					<use value="work"/>
					<line value="27 Acacia Road"/>
					<postalCode value="BM9 6PM"/>
				</address>
			</Organization>
		</resource>
	</entry>
	<!--Organization-Example-2-->
	<entry>
		<fullUrl value="urn:uuid:0b589972-4d02-4636-a090-964fe1952aa9"/>
		<resource>
			<Organization>
				<id value="0b589972-4d02-4636-a090-964fe1952aa9"/>
				<meta>
					<profile value="https://fhir.hl7.org.uk/STU3/StructureDefinition/CareConnect-Organization-1"/>
				</meta>
				<identifier>
					<system value="https://fhir.nhs.uk/Id/ods-organization-code"/>
					<value value="RX0000"/>
				</identifier>
				<type>
					<coding>
						<system value="http://hl7.org/fhir/organization-type"/>
						<code value="dept"/>
						<display value="Hospital Department"/>
					</coding>
				</type>
				<name value="Ophthalmology/orthoptics clinic"/>
				<telecom>
					<system value="phone"/>
					<value value="01234 567890"/>
					<use value="work"/>
				</telecom>
				<address>
					<line value="Ophthalmology/orthoptics clinic"/>
					<line value="St Crispin's Hospital"/>
					<line value="Donaldstown"/>
					<postalCode value="DO5 7TP"/>
				</address>
			</Organization>
		</resource>
	</entry>
	<!--Organization-Example-3-->
	<entry>
		<fullUrl value="urn:uuid:784e2b8a-8daa-42f3-8e65-ffe84aee00a5"/>
		<resource>
			<Organization>
				<id value="784e2b8a-8daa-42f3-8e65-ffe84aee00a5"/>
				<meta>
					<profile value="https://fhir.hl7.org.uk/STU3/StructureDefinition/CareConnect-Organization-1"/>
				</meta>
				<identifier>
					<system value="https://fhir.nhs.uk/Id/ods-organization-code"/>
					<value value="RX0000"/>
				</identifier>
				<type>
					<coding>
						<system value="http://hl7.org/fhir/organization-type"/>
						<code value="dept"/>
						<display value="Hospital Department"/>
					</coding>
				</type>
				<name value="Head Injury Team"/>
				<telecom>
					<system value="phone"/>
					<value value="01234 567890"/>
					<use value="work"/>
				</telecom>
				<address>
					<line value="Head Injury Team"/>
					<line value="St Crispin's Hospital"/>
					<line value="Donaldstown"/>
					<postalCode value="DO5 7TP"/>
				</address>
			</Organization>
		</resource>
	</entry>
	<entry>
		<fullUrl value="urn:uuid:02cccb1a-e461-4237-bb64-cb342ea57135"/>
		<resource>
			<List>
				<id value="02cccb1a-e461-4237-bb64-cb342ea57135"/>
				<meta>
					<profile value="https://fhir.nhs.uk/STU3/StructureDefinition/ITK-Allergies-List-1"/>
				</meta>
				<identifier>
					<system value="https://tools.ietf.org/html/rfc4122"/>
					<value value="d41523b0-c04c-4526-ba2b-ecef39108836"/>
				</identifier>
				<status value="current"/>
				<mode value="snapshot"/>
				<code>
					<coding>
						<system value="http://hl7.org/fhir/list-example-use-codes"/>
						<code value="allergies"/>
						<display value="Allergies"/>
					</coding>
				</code>
				<subject>
					<reference value="urn:uuid:dc3491e5-a4c0-4d7e-b879-7bd86133e61f"/>
				</subject>
				<emptyReason>
					<coding>
						<system value="http://snomed.info/sct"/>
						<code value="716186003"/>
						<display value="No known allergy"/>
					</coding>
				</emptyReason>
			</List>
		</resource>
	</entry>
	<!--Procedure Example-->
	<entry>
		<fullUrl value="urn:uuid:4303abe7-0966-49b1-a89d-4d607189124f"/>
		<resource>
			<Procedure>
				<id value="4303abe7-0966-49b1-a89d-4d607189124f"/>
				<meta>
					<profile value="https://fhir.nhs.uk/STU3/StructureDefinition/CareConnect-ITK-Procedure-1"/>
				</meta>
				<extension url="https://fhir.hl7.org.uk/STU3/StructureDefinition/Extension-CareConnect-DateRecorded-1">
					<valueDateTime value="2017-05-19"/>
				</extension>
				<identifier>
					<system value="https://tools.ietf.org/html/rfc4122"/>
					<value value="a82c7d64-ff0e-4c4f-a7c5-7ede593bd8fb"/>
				</identifier>
				<status value="completed"/>
				<code>
					<coding>
						<system value="http://snomed.info/sct"/>
						<code value="419154004"/>
						<display value="Orthoptic treatment -prism in spectacles"/>
					</coding>
				</code>
				<subject>
					<reference value="urn:uuid:dc3491e5-a4c0-4d7e-b879-7bd86133e61f"/>
				</subject>
				<performedDateTime value="2017-05-19T16:00:00+00:00"/>
				<!--Reference to the condition which is the reason why this procedure has been performed-->
				<reasonReference>
					<reference value="urn:uuid:b45f2e3c-0aa9-4a14-828e-1eba1b0756a7"/>
				</reasonReference>
			</Procedure>
		</resource>
	</entry>
</Bundle>
