<?xml version="1.0" encoding="UTF-8"?>
<Bundle xmlns="http://hl7.org/fhir">
	<id value="eb007581-11ff-4409-a9a7-721c2a0fc0d6"/>
	<meta>
		<profile value="https://fhir.nhs.uk/STU3/StructureDefinition/ITK-Message-Bundle-1"/>
	</meta>
	<identifier>
	<value value="a5779d6e-11c2-4b55-845b-800e2e87e5dd"/>
</identifier>
	<type value="message"/>
	<entry>
		<fullUrl value="urn:uuid:4a09e0f7-81b2-48c6-a384-e7419223e89d"/>
		<resource>
			<MessageHeader>
				<id value="4a09e0f7-81b2-48c6-a384-e7419223e89d"/>
				<meta>
					<profile value="https://fhir.nhs.uk/STU3/StructureDefinition/ITK-MessageHeader-1"/>
				</meta>
				<extension url="https://fhir.nhs.uk/STU3/StructureDefinition/Extension-ITK-MessageHandling-1">
					<extension url="Key">
						<valueCodeableConcept>
							<coding>
								<system value="https://fhir.nhs.uk/STU3/ITK-HandlingKey-1"/>
								<code value="SNDSRVC"/>
								<display value="Sending Service"/>
							</coding>
						</valueCodeableConcept>
					</extension>
					<extension url="Value">
						<valueString value="SendDocument-v1-0"/>
					</extension>
				</extension>
				<extension url="https://fhir.nhs.uk/STU3/StructureDefinition/Extension-ITK-MessageHandling-1">
					<extension url="Key">
						<valueCodeableConcept>
							<coding>
								<system value="https://fhir.nhs.uk/STU3/ITK-HandlingKey-1"/>
								<code value="INTID"/>
								<display value="Interaction ID"/>
							</coding>
						</valueCodeableConcept>
					</extension>
					<extension url="Value">
						<valueString value="DOC-ToC-Primary-Recipient-eDischarge-1"/>
					</extension>
				</extension>
				<extension url="https://fhir.nhs.uk/STU3/StructureDefinition/Extension-ITK-MessageHandling-1">
					<extension url="Key">
						<valueCodeableConcept>
							<coding>
								<system value="https://fhir.nhs.uk/STU3/ITK-HandlingKey-1"/>
								<code value="INFACK"/>
								<display value="Infrastructure Acknowledgement"/>
							</coding>
						</valueCodeableConcept>
					</extension>
					<extension url="Value">
						<valueBoolean value="true"/>
					</extension>
				</extension>
				<extension url="https://fhir.nhs.uk/STU3/StructureDefinition/Extension-ITK-MessageHandling-1">
					<extension url="Key">
						<valueCodeableConcept>
							<coding>
								<system value="https://fhir.nhs.uk/STU3/ITK-HandlingKey-1"/>
								<code value="SNDO"/>
								<display value="Send Only"/>
							</coding>
						</valueCodeableConcept>
					</extension>
					<extension url="Value">
						<valueBoolean value="true"/>
					</extension>
				</extension>
				<event>
					<extension url="https://fhir.nhs.uk/STU3/StructureDefinition/Extension-ITK-CareSettingType-1">
						<valueCodeableConcept>
							<coding>
								<system value="http://snomed.info/sct"/>
								<code value="394576009"/>
								<display value="Accident &amp; emergency (qualifier value)"/>
							</coding>
						</valueCodeableConcept>
					</extension>
					<system value="http://snomed.info/sct"/>
					<code value="373942005"/>
					<display value="Discharge summary (record artifact)"/>
				</event>
				<destination>
					<endpoint value="urn:nhs-uk:addressing:ods:RHM"/>
				</destination>
				<timestamp value="2017-08-23T10:10:15+00:00"/>
				<author>
					<reference value="urn:uuid:b86216fe-6a51-4687-af97-4b7d58154c39"/>
				</author>
				<source>
					<endpoint value="urn:nhs-uk:addressing:ods:B83019"/>
				</source>
				<responsible>
					<reference value="urn:uuid:c7d0d92f-4db9-4ab0-89c8-375afca971ad"/>
				</responsible>
				<focus>
					<reference value="urn:uuid:289f9d42-6f97-40d2-890a-d3d0af397ac7"/>
				</focus>
			</MessageHeader>
		</resource>
	</entry>
	<!--Practitioner-->
	<entry>
		<fullUrl value="urn:uuid:b86216fe-6a51-4687-af97-4b7d58154c39"/>
		<resource>
			<Practitioner>
				<id value="b86216fe-6a51-4687-af97-4b7d58154c39"/>
				<meta>
					<profile value="https://fhir.hl7.org.uk/STU3/StructureDefinition/CareConnect-Practitioner-1"/>
				</meta>
					<identifier>
		   <system value="https://fhir.nhs.uk/Id/sds-user-id"/>
	           <value value="033345750518"/>
		</identifier>
				<name>
					<family value="Rastall"/>
					<given value="Paul"/>
					<prefix value="Dr"/>
				</name>
				<telecom>
					<system value="phone"/>
					<value value="01136323206"/>
					<use value="work"/>
				</telecom>
			</Practitioner>
		</resource>
	</entry>
	<!--Organization-->
	<entry>
		<fullUrl value="urn:uuid:c7d0d92f-4db9-4ab0-89c8-375afca971ad"/>
		<resource>
			<Organization>
				<id value="c7d0d92f-4db9-4ab0-89c8-375afca971ad"/>
				<meta>
					<profile value="https://fhir.hl7.org.uk/STU3/StructureDefinition/CareConnect-Organization-1"/>
				</meta>
				<identifier>
					<system value="https://fhir.nhs.uk/Id/ods-organization-code"/>
					<value value="RY6"/>
				</identifier>
				<type>
					<coding>
						<system value="http://hl7.org/fhir/organization-type"/>
						<code value="prov"/>
						<display value="Healthcare Provider"/>
					</coding>
				</type>
				<name value="Leeds Community Healthcare NHS Trust"/>
				<telecom>
					<system value="phone"/>
					<value value="01136323200"/>
					<use value="work"/>
				</telecom>
				<address>
					<line value="Leeds Community Healthcare NHS Trust"/>
					<line value="First Floor, Stockdale House"/>
					<line value="Headingley Office Park"/>
					<line value="Victoria Road"/>
					<city value="Leeds"/>
					<postalCode value="LS6 1PF"/>
				</address>
			</Organization>
		</resource>
	</entry>
		<entry>
		<fullUrl value="urn:uuid:289f9d42-6f97-40d2-890a-d3d0af397ac7"/>
		<resource>
			<!-- An example document bundle, in this case an outline example containing only an outline EDIS-Composition with no linked resources -->
			<Bundle>
				<id value="289f9d42-6f97-40d2-890a-d3d0af397ac7"/>
				<meta>
					<profile value="https://fhir.nhs.uk/STU3/StructureDefinition/ITK-Document-Bundle-1"/>
				</meta>
				<identifier>
					<value value="ac2226e1-35f7-4fc4-87dc-67df070a188d"/>
				</identifier>
				<type value="document"/>
				<!--Outline Composition profile with mandatory elements populated only-->
				<entry>
					<fullUrl value="urn:uuid:ca9b6788-fb34-4668-9d61-a8cc2f9a5fdc"/>
					<resource>
						<Composition>
							<id value="ca9b6788-fb34-4668-9d61-a8cc2f9a5fdc"/>
							<meta>
								<profile value="https://fhir.nhs.uk/STU3/StructureDefinition/ITK-EDIS-Composition-1"/>
							</meta>
							<identifier>
								<value id="5f3c870f-ee67-4065-8469-cd3a900682ee"/>
							</identifier>
							<status value="final"/>
							<type>
								<!--Discharge Summary-->
								<coding>
									<system value="http://snomed.info/sct"/>
									<code value="373942005"/>
									<display value="Discharge summary (record artifact)"/>
								</coding>
							</type>
							<subject>
								<reference value="urn:uuid:d3ed9822-fa2b-4972-af0a-ec19e7a3ad11"/>
							</subject>
							<date value="2017-08-17T10:00:00+00:00"/>
							<author>
								<reference value="urn:uuid:39a7ea86-b455-479f-948b-3fdc23b627f5"/>
							</author>
							<title value="Discharge summary"/>
						</Composition>
					</resource>
				</entry>
			</Bundle>
		</resource>
	</entry>
</Bundle>
