<?xml version="1.0" encoding="UTF-8"?>
<!--Sample XML file generated by XMLSpy v2017 sp2 (http://www.altova.com)-->
<Bundle xmlns="http://hl7.org/fhir" xmlns:xsi="http://www.w3.org/2001/XMLSchema-instance" xsi:schemaLocation="http://hl7.org/fhir file:///C:/GitHubRepo/ITK-FHIR-Outpatient-Letter/schemas/bundle.xsd">
 <id value="56cda0f0-d663-482c-944d-0ff8bf804d46"/>
 <meta>
  <profile value="https://fhir.nhs.uk/STU3/StructureDefinition/ITK-Document-Bundle-1"/>
 </meta>
 <identifier>
  <system value="https://tools.ietf.org/html/rfc4122"/>
  <value value="fc09b056-a869-41c3-ad7b-b2074c3d97b6"/>
 </identifier>
 <type value="document"/>
 <!--Outpatient Letter Composition-->
 <entry>
  <fullUrl value="urn:uuid:17e783b1-8fe0-4846-957e-e3ada2559762"/>
  <resource>
   <Composition>
    <id value="17e783b1-8fe0-4846-957e-e3ada2559762"/>
    <meta>
     <profile value="https://fhir.nhs.uk/STU3/StructureDefinition/ITK-OPL-Composition-1"/>
    </meta>
    <!-- Information Recipient 1 -->
    <extension url="https://fhir.nhs.uk/STU3/StructureDefinition/Extension-ITK-InformationRecipient-1">
     <valueReference>
      <reference value="urn:uuid:8ece9986-9af0-4882-b0cf-23a96ea7b509"/>
     </valueReference>
    </extension>
    <!-- Information Recipient 2 -->
    <extension url="https://fhir.nhs.uk/STU3/StructureDefinition/Extension-ITK-InformationRecipient-1">
     <valueReference>
      <reference value="urn:uuid:5e414a77-d394-4248-a631-00e45ddb64a0"/>
     </valueReference>
    </extension>
    <!-- Care Setting Type -->
    <extension url="https://fhir.nhs.uk/STU3/StructureDefinition/Extension-ITK-CareSettingType-1">
     <valueCodeableConcept>
      <coding>
       <system value="http://snomed.info/sct"/>
       <code value="700433006"/>
       <display value="Gastroenterology service"/>
      </coding>
     </valueCodeableConcept>
    </extension>
    <identifier>
     <value value="2b5d459b-df79-4a2b-9b0c-95b2a7ee2ca4"/>
    </identifier>
    <status value="final"/>
    <type>
     <!--Outpatient letter -->
     <coding>
      <system value="http://snomed.info/sct"/>
      <code value="823681000000100"/>
      <display value="Outpatient letter"/>
     </coding>
    </type>
    <subject>
     <reference value="urn:uuid:31686b67-9f20-4644-9a54-193d2f91de57"/>
    </subject>
    <encounter>
     <reference value="urn:uuid:4f36b35a-ad18-4ea9-a3fb-c893f709e88a"/>
    </encounter>
    <!--The composition editing time, when the composition was last logically changed by the author.-->
    <date value="2015-02-17T10:00:00+00:00"/>
    <!--Identifies who is responsible for the information in the composition, not necessarily who typed it in-->
    <author>
     <reference value="urn:uuid:d25fd1c6-2658-4db7-9af0-86c5f95e8ec9"/>
    </author>
    <title value="Outpatient letter"/>
    <!--The code specifying the level of confidentiality of the Composition.-->
    <confidentiality value="V"/>
    <!--Identifies the organization responsible for ongoing maintenance of and access to the composition/document information.-->
    <custodian>
     <reference value="urn:uuid:12bba528-a08a-448b-946b-7e8008044025"/>
    </custodian>
    <!--Attendance details section-->
    <section>
     <title value="Attendance details"/>
     <code>
      <coding>
       <system value="http://snomed.info/sct"/>
       <code value="1077881000000105"/>
       <display value="Attendance details"/>
      </coding>
     </code>
     <text>
      <status value="generated"/>
      <div xmlns="http://www.w3.org/1999/xhtml">
       <table width="100%">
        <tbody>
         <tr>
          <th>Date of Appointment/contact</th>
          <td>01/05/2017</td>
         </tr>
         <tr>
          <th>Contact type</th>
          <td>First attendance face to face</td>
         </tr>
         <tr>
          <th>Consultation Method</th>
          <td>Face-to-face</td>
         </tr>
         <tr>
          <th>Responsible Healthcare professional</th>
          <td>Dr. Ruth Jones</td>
         </tr>
         <tr>
          <th>Seen by</th>
          <td>
           <p>Dr. Ruth Jones</p>
           <p>Role: Consultant Gastroenterologist</p>
           <p>Tel: (01234) 562170</p>
          </td>
         </tr>
         <tr>
          <th>Service</th>
          <td>Gastroenterology</td>
         </tr>
         <tr>
          <th>Outcome of Patient Attendance</th>
          <td>Appointment to be made at a later date</td>
         </tr>
         <tr>
          <th>Care professional present</th>
          <td>Mrs. N Bryant, IBD specialist nurse</td>
         </tr>
        </tbody>
       </table>
      </div>
     </text>
     <orderedBy>
      <coding>
       <system value="http://hl7.org/fhir/list-order"/>
       <code value="system"/>
       <display value="Sorted by System"/>
      </coding>
     </orderedBy>
     <!--		<entry>
						<reference value="urn:uuid:c37a3a1a-0895-44c4-a79a-f7b7bb425e47"/>
					</entry>-->
    </section>
    <!--Allergies and adverse reactions-->
    <section>
     <title value="Allergies and adverse reactions"/>
     <code>
      <coding>
       <system value="http://snomed.info/sct"/>
       <code value="886921000000105"/>
       <display value="Allergies and adverse reactions"/>
      </coding>
     </code>
     <text>
      <status value="generated"/>
      <div xmlns="http://www.w3.org/1999/xhtml">
       <table width="100%">
        <tbody>
         <tr>
          <th>Allergy/adverse reaction</th>
         </tr>
         <tr>
          <th>Causative agent</th>
          <th>Description of reaction</th>
          <th>Type of reaction</th>
          <th>Severity</th>
          <th>Probability of recurrence</th>
          <th>Date first experienced</th>
         </tr>
         <tr>
          <td>Amoxicillin</td>
          <td>urticarial rash</td>
          <td>Likely</td>
          <td>Age 12</td>
         </tr>
        </tbody>
       </table>
      </div>
     </text>
     <orderedBy>
      <coding>
       <system value="http://hl7.org/fhir/list-order"/>
       <code value="system"/>
       <display value="Sorted by System"/>
      </coding>
     </orderedBy>
     <entry>
      <reference value="urn:uuid:627bd799-7a86-40bd-a931-d8526b412fa5"/>
     </entry>
    </section>
    <!--Clinical summary-->
    <section>
     <title value="Clinical summary"/>
     <code>
      <coding>
       <system value="http://snomed.info/sct"/>
       <code value="887181000000106"/>
       <display value="Clinical summary"/>
      </coding>
     </code>
     <text>
      <status value="generated"/>
      <div xmlns="http://www.w3.org/1999/xhtml">
       <table width="100%">
        <tbody>
         <tr>
          <th>Clinical Summary</th>
         </tr>
         <tr>
          <td>Findings are suggestive of IBD. Rigid sigmoidoscopy looks like UC. 5ASA treatment commenced today pending further investigation.</td>
         </tr>
        </tbody>
       </table>
      </div>
     </text>
    </section>
    <!--Diagnoses-->
    <section>
     <title value="Diagnoses"/>
     <code>
      <coding>
       <system value="http://snomed.info/sct"/>
       <code value="887161000000102"/>
       <display value="Diagnoses"/>
      </coding>
     </code>
     <text>
      <status value="generated"/>
      <div xmlns="http://www.w3.org/1999/xhtml">
       <br/>
       <table>
        <tbody>
         <tr>
          <th>Diagnosis</th>
         </tr>
         <tr>
          <td>1. Proctitis</td>
         </tr>
         <tr>
          <td>2. Dyspepsia</td>
         </tr>
        </tbody>
       </table>
       <p>Thank you for referring Ms. Critchard to the gastroenterology outpatient clinic.</p>
       <br/>
      </div>
     </text>
     <orderedBy>
      <coding>
       <system value="http://hl7.org/fhir/list-order"/>
       <code value="system"/>
       <display value="Sorted by System"/>
      </coding>
     </orderedBy>
     <!--			<entry>
						<reference value="urn:uuid:8197e5be-1483-48e6-bf30-842f5184d4cf"/>
					
					</entry>
					<entry>
						<reference value="urn:uuid:84a8fe59-7b83-4eae-a40b-170ed685524f"/>
					</entry>-->
    </section>
    <!--Investigation-->
    <section>
     <title value="Investigation results"/>
     <code>
      <coding>
       <system value="http://snomed.info/sct"/>
       <code value="24641000000107"/>
       <display value="Investigation results"/>
      </coding>
     </code>
     <text>
      <status value="generated"/>
      <div xmlns="http://www.w3.org/1999/xhtml">
       <table width="100%">
        <tbody>
         <tr>
          <th>Investigation results</th>
         </tr>
         <tr>
          <td>Facael calprotein levels were 247mcg/g faces (normal 50)</td>
         </tr>
        </tbody>
       </table>
      </div>
     </text>
    </section>
    <!--Plan and requested actions-->
    <section>
     <title value="Plan and requested actions"/>
     <code>
      <coding>
       <system value="http://snomed.info/sct"/>
       <code value="887201000000105"/>
       <display value="Plan and requested actions"/>
      </coding>
     </code>
     <text>
      <status value="generated"/>
      <div xmlns="http://www.w3.org/1999/xhtml">
       <table width="100%">
        <tbody>
         <tr>
          <th>Plan and requested actions for healthcare professionals</th>
         </tr>
         <tr>
          <td>A flexible sigmoidoscopy has been Requested on an urgent basis by Ruth Jones on 01/05/17. FBC, U and E, LFT and CRP are to be measured, the patient was provided with a form at the appointment. 
										Stool MC and S plus C. diff are to be taken, the patient was given forms and collections points at the appointment.</td>
         </tr>
        </tbody>
       </table>
      </div>
     </text>
    </section>
    <!--Examiniation findings-->
    <section>
     <title value="Examination finding"/>
     <code>
      <coding>
       <system value="http://snomed.info/sct"/>
       <code value="715851000000102"/>
       <display value="Examination findings"/>
      </coding>
     </code>
     <text>
      <status value="generated"/>
      <div xmlns="http://www.w3.org/1999/xhtml">
       <table width="100%">
        <tbody>
         <tr>
          <th>-Examiniation findings</th>
         </tr>
         <tr>
          <td>The abdomen was found to be soft but mainly tender in the left iliac fossa. There was no guarding or rebound and bowel sounds normal.</td>
         </tr>
        </tbody>
       </table>
      </div>
     </text>
    </section>
    <!--Family history-->
    <section>
     <title value="Family history"/>
     <code>
      <coding>
       <system value="http://snomed.info/sct"/>
       <code value="887111000000104"/>
       <display value="Family history"/>
      </coding>
     </code>
     <text>
      <status value="generated"/>
      <div xmlns="http://www.w3.org/1999/xhtml">
       <table width="100%">
        <tbody>
         <tr>
          <th>Family history</th>
         </tr>
         <tr>
          <td>Ms. Critchard has no family history of I.B.D. </td>
         </tr>
        </tbody>
       </table>
      </div>
     </text>
    </section>
    <!--History-->
    <section>
     <title value="History"/>
     <code>
      <coding>
       <system value="http://snomed.info/sct"/>
       <code value="717121000000105"/>
       <display value="History"/>
      </coding>
     </code>
     <text>
      <status value="generated"/>
      <div xmlns="http://www.w3.org/1999/xhtml">
       <table width="100%">
        <tbody>
         <tr>
          <th>History</th>
         </tr>
         <tr>
          <td>Ms. Critchard presents with ongoing symptoms of bloody diarrhoea, weight loss, and abdominal discomfort that are unresponsive to treatment.  She has a 2 month history of bloody diarrhoea. Her bowels open 5-6 per day with 1-2 nocturnal episodes. 
										Ms. Critchard has experienced weight loss of 1 stone over the same period. She experiences a crampy left iliac fossa pain intermittently. <br/>She has no history of travel, unwell contacts or previous similar symptoms. She has longstanding mild dyspepsia for which she takes antacid as necessary.
										 It has never been investigated.</td>
         </tr>
        </tbody>
       </table>
      </div>
     </text>
    </section>
    <!--Medication-->
    <section>
     <title value="Medications and medical devices"/>
     <code>
      <coding>
       <system value="http://snomed.info/sct"/>
       <code value="933361000000108"/>
       <display value="Medications and medical devices"/>
      </coding>
     </code>
     <text>
      <status value="generated"/>
      <div xmlns="http://www.w3.org/1999/xhtml">
       <table width="100%">
        <tbody>
         <tr>
          <th>Changes to medications and medical devices</th>
         </tr>
         <tr>
          <td>(only changes to medications and medical devices as a result of the outpatient encounter are included)</td>
         </tr>
         <tr>
          <td>New medication</td>
         </tr>
         <tr>
          <td>1.	Mrs. Critchard was prescribed 2.4mg per day of Asacol in tablet form, to be taken orally once a day as 3x800mg tablets.It is expected that this will aid symptom management.A 14xday course was prescribed in clinic, please renew in 2xweeks time.</td>
         </tr>
        </tbody>
       </table>
       <br/>
      </div>
     </text>
     <orderedBy>
      <coding>
       <system value="http://hl7.org/fhir/list-order"/>
       <code value="system"/>
       <display value="Sorted by System"/>
      </coding>
     </orderedBy>
     <!--			<entry>
						<reference value="urn:uuid:9b1cf5d4-2445-4c99-994a-b75b1a13a4f3"/>
						<display value="Medication List"/>
					</entry>-->
    </section>
    <!--Problems and issues-->
    <section>
     <title value="Problems and issues"/>
     <code>
      <coding>
       <system value="http://snomed.info/sct"/>
       <code value="887151000000100"/>
       <display value="Problems and issues"/>
      </coding>
     </code>
     <text>
      <status value="generated"/>
      <div xmlns="http://www.w3.org/1999/xhtml">
       <table width="100%">
        <tbody>
         <tr>
          <th align="left">Problems and issues</th>
         </tr>
         <tr>
          <td>1. Bloody diarrhoea</td>
         </tr>
         <tr>
          <td>2. Weight loss</td>
         </tr>
        </tbody>
       </table>
      </div>
     </text>
    </section>
    <!--Procedure-->
    <section>
     <title value="Procedures"/>
     <code>
      <coding>
       <system value="http://snomed.info/sct"/>
       <code value="887171000000109"/>
       <display value="Procedures"/>
      </coding>
     </code>
     <text>
      <status value="generated"/>
      <div xmlns="http://www.w3.org/1999/xhtml">
       <table width="100%">
        <tbody>
         <tr>
          <th>Procedures</th>
         </tr>
         <tr>
          <td>A Rigid sigmoidoscopy was performed to the limit of view at 20cm. It showed inflamed and ulcerated mucosa with contact bleeding to about 15cm. Proximally appears to improve.</td>
         </tr>
        </tbody>
       </table>
      </div>
     </text>
    </section>
    <!--Social context-->
    <section>
     <title value="Social context"/>
     <code>
      <coding>
       <system value="http://snomed.info/sct"/>
       <code value="887051000000101"/>
       <display value="Social context"/>
      </coding>
     </code>
     <text>
      <status value="generated"/>
      <div xmlns="http://www.w3.org/1999/xhtml">
       <table width="100%">
        <tbody>
         <tr>
          <th>Social context</th>
         </tr>
         <tr>
          <td>Ms. Critchard lives with her boyfriend and works as a Baker. She is an ex-smoker, stopped 2 years, and consumed 10-14 units of alcohol per week.</td>
         </tr>
        </tbody>
       </table>
      </div>
     </text>
    </section>
   </Composition>
  </resource>
 </entry>
 <!--Encounter Example 1-->
 <entry>
  <fullUrl value="urn:uuid:5eb68856-6b0f-4dd9-be3f-2f4b7fde2922"/>
  <resource>
   <Encounter>
    <id value="5eb68856-6b0f-4dd9-be3f-2f4b7fde2922"/>
    <meta>
     <profile value="https://fhir.nhs.uk/STU3/StructureDefinition/CareConnect-ITK-Encounter-1"/>
    </meta>
    <identifier>
     <system value="https://tools.ietf.org/html/rfc4122"/>
     <value value="85e88b9f-c6be-4d09-ae48-f4fa6687903d"/>
    </identifier>
    <status value="finished"/>
    <class>
     <system value="http://hl7.org/fhir/v3-ActEncounterCode"/>
     <code value="AMB"/>
     <display value="ambulatory"/>
    </class>
    <!--Specific type of encounter-->
    <type>
     <coding>
      <system value="http://snomed.info/sct"/>
      <code value="163381000000105"/>
      <display value="Outpatient Clinic Attendance"/>
     </coding>
    </type>
    <subject>
     <reference value="urn:uuid:31686b67-9f20-4644-9a54-193d2f91de57"/>
    </subject>
    <period>
     <start value="2017-05-16T09:00:00+00:00"/>
     <end value="2017-05-16T09:00:00+00:00"/>
    </period>
    <!--	The list of diagnoses relevant to this encounter-->
    <diagnosis>
     <condition>
      <reference value="urn:uuid:50141d4f-fe5a-4616-ab9e-9b0366333ea0"/>
     </condition>
    </diagnosis>
    <diagnosis>
     <condition>
      <reference value="urn:uuid:7ec3effa-da14-47c7-881f-0b04903861c6"/>
     </condition>
    </diagnosis>
    <hospitalization>
     <admitSource>
      <coding>
       <system value="http://hl7.org/fhir/admit-source"/>
       <code value="gp"/>
       <display value="General Practitioner referral"/>
      </coding>
     </admitSource>
     <dischargeDisposition>
      <coding>
       <system value="http://hl7.org/fhir/discharge-disposition"/>
       <code value="home"/>
       <display value="Home"/>
      </coding>
     </dischargeDisposition>
    </hospitalization>
    <location>
     <location>
      <reference value="urn:uuid:01bb1ccc-577b-4a4a-9fb0-9c8fe9f21fa3"/>
     </location>
    </location>
   </Encounter>
  </resource>
 </entry>
 <!--Allergies List-->
 <entry>
  <fullUrl value="urn:uuid:627bd799-7a86-40bd-a931-d8526b412fa5"/>
  <resource>
   <List>
    <id value="627bd799-7a86-40bd-a931-d8526b412fa5"/>
    <meta>
     <profile value="https://fhir.nhs.uk/STU3/StructureDefinition/ITK-Allergies-List-1"/>
    </meta>
    <identifier>
     <system value="https://tools.ietf.org/html/rfc4122"/>
     <value value="9ca85d9b-c54c-4134-8fcc-3552796c7340"/>
    </identifier>
    <status value="current"/>
    <mode value="snapshot"/>
    <subject>
     <reference value="urn:uuid:31686b67-9f20-4644-9a54-193d2f91de57"/>
    </subject>
    <encounter>
     <reference value="urn:uuid:4f36b35a-ad18-4ea9-a3fb-c893f709e88a"/>
    </encounter>
    <entry>
     <item>
      <reference value="urn:uuid:bae93050-79ec-45c6-9e3e-023593b06641"/>
     </item>
    </entry>
   </List>
  </resource>
 </entry>
 <!--Allergy Intolerance Example 1-->
 <entry>
  <fullUrl value="urn:uuid:bae93050-79ec-45c6-9e3e-023593b06641"/>
  <resource>
   <AllergyIntolerance>
    <id value="bae93050-79ec-45c6-9e3e-023593b06641"/>
    <meta>
     <profile value="https://fhir.hl7.org.uk/STU3/StructureDefinition/CareConnect-AllergyIntolerance-1"/>
    </meta>
    <extension url="https://fhir.hl7.org.uk/STU3/StructureDefinition/Extension-CareConnect-ProbabilityOfRecurrence-1">
     <valueString value="Likely"/>
    </extension>
    <identifier>
     <system value="https://tools.ietf.org/html/rfc4122"/>
     <value value="9334f90a-7f48-453b-aaa6-7a7a42b8e7a8"/>
    </identifier>
    <clinicalStatus value="active"/>
    <verificationStatus value="confirmed"/>
    <type value="allergy"/>
    <category value="medication"/>
    <patient>
     <reference value="urn:uuid:31686b67-9f20-4644-9a54-193d2f91de57"/>
    </patient>
    <onsetDateTime value="2015-02-12T12:00:00+00:00"/>
    <reaction>
     <substance>
      <coding>
       <system value="http://snomed.info/sct"/>
       <code value="372687004"/>
       <display value="Amoxicillin"/>
      </coding>
     </substance>
     <manifestation>
      <coding>
       <system value="http://snomed.info/sct"/>
       <code value="247472004"/>
       <display value="urticarial rash"/>
      </coding>
     </manifestation>
    </reaction>
   </AllergyIntolerance>
  </resource>
 </entry>
 <!--Allergy Flag Example 1-->
 <entry>
  <fullUrl value="urn:uuid:61be6900-bc3c-4a28-96dc-746381b7c1be"/>
  <resource>
   <Flag>
    <id value="61be6900-bc3c-4a28-96dc-746381b7c1be"/>
    <meta>
     <profile value="https://fhir.nhs.uk/STU3/StructureDefinition/ITK-Allergy-Flag-1"/>
    </meta>
    <extension url="https://fhir.nhs.uk/STU3/StructureDefinition/Extension-ITK-AllergyFlagDetail-1">
     <valueReference>
      <reference value="urn:uuid:bae93050-79ec-45c6-9e3e-023593b06641"/>
     </valueReference>
    </extension>
    <identifier>
     <system value="https://tools.ietf.org/html/rfc4122"/>
     <value value="e90bfad6-aa90-45ec-8855-29eb20d9fcae"/>
    </identifier>
    <status value="active"/>
    <category>
     <coding>
      <system value="http://snomed.info/sct"/>
      <code value="886921000000105"/>
      <display value="Allergies and adverse reactions"/>
     </coding>
    </category>
    <code>
     <coding>
      <system value="http://snomed.info/sct"/>
      <code value="416098002"/>
      <display value="Drug allergy"/>
     </coding>
    </code>
    <subject>
     <reference value="urn:uuid:31686b67-9f20-4644-9a54-193d2f91de57"/>
    </subject>
   </Flag>
  </resource>
 </entry>
 <!--Diagnoses 1-->
 <entry>
  <fullUrl value="urn:uuid:50141d4f-fe5a-4616-ab9e-9b0366333ea0"/>
  <resource>
   <Condition>
    <id value="50141d4f-fe5a-4616-ab9e-9b0366333ea0"/>
    <meta>
     <profile value="https://fhir.nhs.uk/STU3/StructureDefinition/CareConnect-ITK-Condition-1"/>
    </meta>
    <identifier>
     <system value="https://tools.ietf.org/html/rfc4122"/>
     <value value="369b5cdc-b0aa-4175-8918-9af81651e613"/>
    </identifier>
    <clinicalStatus value="active"/>
    <verificationStatus value="confirmed"/>
    <category>
     <coding>
      <system value="https://fhir.hl7.org.uk/STU3/CareConnect-ConditionCategory-1"/>
      <code value="diagnosis"/>
      <display value="Diagnosis"/>
     </coding>
    </category>
    <code>
     <coding>
      <system value="http://snomed.info/sct"/>
      <code value="3951002"/>
      <display value="Proctitis"/>
     </coding>
    </code>
    <subject>
     <reference value="urn:uuid:31686b67-9f20-4644-9a54-193d2f91de57"/>
    </subject>
    <context>
     <reference value="urn:uuid:5eb68856-6b0f-4dd9-be3f-2f4b7fde2922"/>
    </context>
    <onsetDateTime value="2015-03-15T12:00:00+00:00"/>
    <asserter>
     <reference value="urn:uuid:5e414a77-d394-4248-a631-00e45ddb64a0"/>
    </asserter>
   </Condition>
  </resource>
 </entry>
 <!--Diagnoses 2-->
 <entry>
  <fullUrl value="urn:uuid:7ec3effa-da14-47c7-881f-0b04903861c6"/>
  <resource>
   <Condition>
    <id value="7ec3effa-da14-47c7-881f-0b04903861c6"/>
    <meta>
     <profile value="https://fhir.nhs.uk/STU3/StructureDefinition/CareConnect-ITK-Condition-1"/>
    </meta>
    <identifier>
     <system value="https://tools.ietf.org/html/rfc4122"/>
     <value value="f3c08998-307c-49db-a0b0-4f0317a992cb"/>
    </identifier>
    <clinicalStatus value="active"/>
    <verificationStatus value="confirmed"/>
    <category>
     <coding>
      <system value="https://fhir.hl7.org.uk/STU3/CareConnect-ConditionCategory-1"/>
      <code value="diagnosis"/>
      <display value="Diagnosis"/>
     </coding>
    </category>
    <code>
     <coding>
      <system value="http://snomed.info/sct"/>
      <code value="162031009"/>
      <display value="dyspepsia"/>
     </coding>
    </code>
    <subject>
     <reference value="urn:uuid:31686b67-9f20-4644-9a54-193d2f91de57"/>
    </subject>
    <context>
     <reference value="urn:uuid:5eb68856-6b0f-4dd9-be3f-2f4b7fde2922"/>
    </context>
    <onsetDateTime value="2017-05-15T12:00:00+00:00"/>
    <asserter>
     <reference value="urn:uuid:5e414a77-d394-4248-a631-00e45ddb64a0"/>
    </asserter>
   </Condition>
  </resource>
 </entry>
 <!--Examination observation 1-->
 <entry>
  <fullUrl value="urn:uuid:ed66558d-d668-453a-95fe-067fffa4cbd2"/>
  <resource>
   <Observation>
    <id value="ed66558d-d668-453a-95fe-067fffa4cbd2"/>
    <meta>
     <!--Identifies the profile being used-->
     <profile value="https://fhir.nhs.uk/STU3/StructureDefinition/CareConnect-ITK-Observation-1"/>
    </meta>
    <identifier>
     <system value="https://tools.ietf.org/html/rfc4122"/>
     <value value="298fdf13-abff-4ce0-ad79-5aad9cb6d031"/>
    </identifier>
    <status value="final"/>
    <code>
     <coding>
      <system value="http://snomed.info/sct"/>
      <code value="302199004"/>
      <display value="Examination"/>
     </coding>
    </code>
    <subject>
     <reference value="urn:uuid:31686b67-9f20-4644-9a54-193d2f91de57"/>
    </subject>
    <effectiveDateTime value="2016-01-02T08:39:16+00:00"/>
    <performer>
     <reference value="urn:uuid:5e414a77-d394-4248-a631-00e45ddb64a0"/>
    </performer>
    <comment value="The abdomen was found to be soft but mainly tender in the left iliac fossa. There was no guarding or rebound and bowel sounds normal."/>
   </Observation>
  </resource>
 </entry>
 <!--Family history observation 1-->
 <entry>
  <fullUrl value="urn:uuid:3307a7fc-1a8a-4d76-a6ef-15bdf01dc566"/>
  <resource>
   <Observation>
    <id value="3307a7fc-1a8a-4d76-a6ef-15bdf01dc566"/>
    <meta>
     <!--Identifies the profile being used-->
     <profile value="https://fhir.nhs.uk/STU3/StructureDefinition/CareConnect-ITK-Observation-1"/>
    </meta>
    <identifier>
     <system value="https://tools.ietf.org/html/rfc4122"/>
     <value value="14240d62-d67d-41e8-b254-e6960b5ccb82"/>
    </identifier>
    <status value="final"/>
    <code>
     <coding>
      <system value="http://snomed.info/sct"/>
      <code value="163051000000102"/>
      <display value="Family history"/>
     </coding>
    </code>
    <subject>
     <reference value="urn:uuid:31686b67-9f20-4644-9a54-193d2f91de57"/>
    </subject>
    <effectiveDateTime value="2016-01-02T08:39:16+00:00"/>
    <performer>
     <reference value="urn:uuid:5e414a77-d394-4248-a631-00e45ddb64a0"/>
    </performer>
    <comment value="Ms. Critchard has no family history of I.B.D."/>
   </Observation>
  </resource>
 </entry>
 <!--history observation 1-->
 <entry>
  <fullUrl value="urn:uuid:a0ea3f0e-ca48-4209-9fd8-02a6ab246f17"/>
  <resource>
   <Observation>
    <id value="a0ea3f0e-ca48-4209-9fd8-02a6ab246f17"/>
    <meta>
     <!--Identifies the profile being used-->
     <profile value="https://fhir.nhs.uk/STU3/StructureDefinition/CareConnect-ITK-Observation-1"/>
    </meta>
    <identifier>
     <system value="https://tools.ietf.org/html/rfc4122"/>
     <value value="94980299-e567-437b-bd6d-9c0fc94f1ede"/>
    </identifier>
    <status value="final"/>
    <code>
     <coding>
      <system value="http://snomed.info/sct"/>
      <code value="717121000000105"/>
      <display value="History"/>
     </coding>
    </code>
    <subject>
     <reference value="urn:uuid:31686b67-9f20-4644-9a54-193d2f91de57"/>
    </subject>
    <effectiveDateTime value="2016-01-02T08:39:16+00:00"/>
    <performer>
     <reference value="urn:uuid:5e414a77-d394-4248-a631-00e45ddb64a0"/>
    </performer>
    <comment value="Ms. Critchard presents with ongoing symptoms of bloody diarrhoea, weight loss, and abdominal discomfort that are unresponsive to treatment.  She has a 2 month history of bloody diarrhoea. Her bowels open 5-6 per day with 1-2 nocturnal episodes. Ms. Critchard has experienced weight loss of 1 stone over the same period. She experiences a crampy left iliac fossa pain intermittently. "/>
   </Observation>
  </resource>
 </entry>
 <!--Social context-->
 <entry>
  <fullUrl value="urn:uuid:75fbcc55-af4d-4e8a-809d-d18e153948d3"/>
  <resource>
   <Observation>
    <id value="75fbcc55-af4d-4e8a-809d-d18e153948d3"/>
    <meta>
     <profile value="https://fhir.nhs.uk/STU3/StructureDefinition/CareConnect-ITK-Observation-1"/>
    </meta>
    <identifier>
     <system value="https://tools.ietf.org/html/rfc4122"/>
     <value value="aa2981b6-12ef-4562-8fd9-2fc57fd35e7a"/>
    </identifier>
    <status value="final"/>
    <code>
     <coding>
      <system value="http://snomed.info/sct"/>
      <code value="887051000000101"/>
      <display value="Social context"/>
     </coding>
    </code>
    <subject>
     <reference value="urn:uuid:31686b67-9f20-4644-9a54-193d2f91de57"/>
    </subject>
    <effectiveDateTime value="2016-01-02T08:39:16+00:00"/>
    <performer>
     <reference value="urn:uuid:5e414a77-d394-4248-a631-00e45ddb64a0"/>
    </performer>
    <comment value="Ms. Critchard lives with her boyfriend and works as a Baker. She is an ex-smoker, stopped 2 years, and consumed 10-14 units of alcohol per week."/>
   </Observation>
  </resource>
 </entry>
 <!--Procedure example 1-->
 <entry>
  <fullUrl value="urn:uuid:151437d2-0232-4c55-93c4-9ed1fde3cea1"/>
  <resource>
   <Procedure>
    <id value="151437d2-0232-4c55-93c4-9ed1fde3cea1"/>
    <meta>
     <!--Identifies the profile being used-->
     <profile value="https://fhir.nhs.uk/STU3/StructureDefinition/CareConnect-ITK-Procedure-1"/>
    </meta>
    <identifier>
     <system value="https://tools.ietf.org/html/rfc4122"/>
     <value value="aae14c55-5243-4443-a549-0fbf5587d34a"/>
    </identifier>
    <status value="in-progress"/>
    <code>
     <coding>
      <system value="http://snomed.info/sct"/>
      <code value="235153008"/>
      <display value="sigmoidoscopy"/>
     </coding>
    </code>
    <subject>
     <reference value="urn:uuid:31686b67-9f20-4644-9a54-193d2f91de57"/>
    </subject>
    <performer>
     <actor>
      <reference value="urn:uuid:d25fd1c6-2658-4db7-9af0-86c5f95e8ec9"/>
     </actor>
    </performer>
    <outcome>
     <coding>
      <system value="http://snomed.info/sct"/>
      <code value="415767003"/>
      <display value="Ulcerated mucosa of colon"/>
     </coding>
    </outcome>
    <note>
     <text value="A Rigid sigmoidoscopy was performed to the limit of view at 20cm. It showed inflamed and ulcerated mucosa with contact bleeding to about 15cm. Proximally appears to improve."/>
    </note>
    <note>
     <text value="Facael calprotein levels were 247mcg/g faces (normal less than 50)"/>
    </note>
   </Procedure>
  </resource>
 </entry>
 <!--Medication List Example 1-->
 <entry>
  <fullUrl value="urn:uuid:cef7f8d5-78e3-4866-89f1-62470d6fd636"/>
  <resource>
   <List>
    <id value="cef7f8d5-78e3-4866-89f1-62470d6fd636"/>
    <meta>
     <profile value="https://fhir.nhs.uk/STU3/StructureDefinition/ITK-Medication-List-1"/>
    </meta>
    <identifier>
     <system value="https://tools.ietf.org/html/rfc4122"/>
     <value value="c28e33b7-dd29-4c9d-957c-ab4a834e5e77"/>
    </identifier>
    <status value="current"/>
    <mode value="snapshot"/>
    <code>
     <coding>
      <system value="http://hl7.org/fhir/list-example-use-codes"/>
      <code value="medications"/>
      <display value="Medication List"/>
     </coding>
    </code>
    <subject>
     <reference value="urn:uuid:31686b67-9f20-4644-9a54-193d2f91de57"/>
    </subject>
    <entry>
     <flag>
      <coding>
       <system value="https://fhir.nhs.uk/STU3/ITK-PatientMedicationChangeType-1"/>
       <code value="09"/>
       <display value="Active"/>
      </coding>
     </flag>
     <item>
      <reference value="urn:uuid:11baa8fd-b670-47d1-ab3a-183488af5c6e"/>
     </item>
    </entry>
   </List>
  </resource>
 </entry>
 <!--Medication Statement Example 1-->
 <entry>
  <fullUrl value="urn:uuid:11baa8fd-b670-47d1-ab3a-183488af5c6e"/>
  <resource>
   <MedicationStatement>
    <id value="11baa8fd-b670-47d1-ab3a-183488af5c6e"/>
    <meta>
     <profile value="https://fhir.nhs.uk/STU3/StructureDefinition/CareConnect-ITK-MedicationStatement-1"/>
    </meta>
    <status value="active"/>
    <medicationReference>
     <reference value="46c1a1b6-c2a5-44bc-a0df-80db5d4fb423"/>
    </medicationReference>
    <subject>
     <reference value="urn:uuid:31686b67-9f20-4644-9a54-193d2f91de57"/>
    </subject>
    <taken value="y"/>
    <dosage>
     <text value="2.4g a day"/>
     <timing>
      <repeat>
       <frequency value="1"/>
       <period value="3"/>
       <periodUnit value="d"/>
      </repeat>
     </timing>
     <asNeededBoolean value="false"/>
     <route>
      <coding>
       <system value="http://snomed.info/sct"/>
       <code value="225373002"/>
       <display value="Oral route"/>
      </coding>
     </route>
     <doseQuantity>
      <value value="3"/>
     </doseQuantity>
     <maxDosePerPeriod>
      <numerator>
       <value value="2400"/>
       <unit value="milligram"/>
       <system value="http://unitsofmeasure.org"/>
       <code value="mg"/>
      </numerator>
      <denominator>
       <value value="24"/>
       <system value="http://unitsofmeasure.org"/>
       <code value="h"/>
      </denominator>
     </maxDosePerPeriod>
    </dosage>
   </MedicationStatement>
  </resource>
 </entry>
 <!--Medication Example 1-->
 <entry>
  <fullUrl value="urn:uuid:b6a4fec2-9617-4c53-8659-912236e787a5"/>
  <resource>
   <Medication>
    <id value="b6a4fec2-9617-4c53-8659-912236e787a5"/>
    <meta>
     <profile value="https://fhir.hl7.org.uk/STU3/StructureDefinition/CareConnect-Medication-1"/>
    </meta>
    <code>
     <coding>
      <system value="http://snomed.info/sct"/>
      <code value="387501005"/>
      <display value="Mesalamine"/>
     </coding>
    </code>
   </Medication>
  </resource>
 </entry>
 <!--Medication Flag Example 1-->
 <entry>
  <fullUrl value="urn:uuid:82bd81cb-6e62-470b-960e-9e04fa1cfcf4"/>
  <resource>
   <Flag>
    <id value="82bd81cb-6e62-470b-960e-9e04fa1cfcf4"/>
    <meta>
     <profile value="https://fhir.nhs.uk/STU3/StructureDefinition/CareConnect-ITK-Medication-Flag-1"/>
    </meta>
    <extension url="https://fhir.nhs.uk/STU3/StructureDefinition/Extension-CareConnect-ITK-MedicationFlagAssociation-1">
     <valueReference>
      <reference value="urn:uuid:11baa8fd-b670-47d1-ab3a-183488af5c6e"/>
     </valueReference>
    </extension>
    <identifier>
     <system value="https://tools.ietf.org/html/rfc4122"/>
     <value value="76ef531e-d072-4f62-8c78-e16b35c188c8"/>
    </identifier>
    <status value="active"/>
    <category>
     <coding>
      <system value="http://hl7.org/fhir/flag-category"/>
      <code value="drug"/>
      <display value="Drug"/>
     </coding>
    </category>
    <code>
     <coding>
      <system value="https://fhir.hl7.org.uk/STU3/CareConnect-MedicationFlag-1"/>
      <code value="continue-indefinitely"/>
      <display value="Continue Indefinitely"/>
     </coding>
    </code>
    <subject>
     <reference value="urn:uuid:31686b67-9f20-4644-9a54-193d2f91de57"/>
    </subject>
   </Flag>
  </resource>
 </entry>
 <!--Patient-Example-1-->
 <entry>
  <fullUrl value="urn:uuid:31686b67-9f20-4644-9a54-193d2f91de57"/>
  <resource>
   <Patient>
    <id value="31686b67-9f20-4644-9a54-193d2f91de57"/>
    <meta>
     <profile value="https://fhir.hl7.org.uk/STU3/StructureDefinition/CareConnect-Patient-1"/>
    </meta>
    <extension url="https://fhir.hl7.org.uk/STU3/StructureDefinition/Extension-CareConnect-EthnicCategory-1">
     <valueCodeableConcept>
      <coding>
       <system value="https://fhir.hl7.org.uk/CareConnect-EthnicCategory-1"/>
       <code value="CA"/>
       <display value="English"/>
      </coding>
     </valueCodeableConcept>
    </extension>
    <extension url="https://fhir.hl7.org.uk/STU3/StructureDefinition/Extension-CareConnect-ResidentialStatus-1">
     <valueCodeableConcept>
      <coding>
       <system value="https://fhir.hl7.org.uk/STU3/CareConnect-ResidentialStatus-1"/>
       <code value="H"/>
       <display value="UK Resident"/>
      </coding>
     </valueCodeableConcept>
    </extension>
    <extension url="https://fhir.hl7.org.uk/STU3/StructureDefinition/Extension-CareConnect-TreatmentCategory-1">
     <valueCodeableConcept>
      <coding>
       <system value="https://fhir.hl7.org.uk/STU3/CareConnect-TreatmentCategory-1"/>
       <code value="8"/>
       <display value="Not applicable"/>
      </coding>
     </valueCodeableConcept>
    </extension>
    <extension url="https://fhir.hl7.org.uk/STU3/StructureDefinition/Extension-CareConnect-NHSCommunication-1">
     <extension url="language">
      <valueCodeableConcept>
       <coding>
        <system value="https://fhir.hl7.org.uk/STU3/CareConnect-HumanLanguage-1"/>
        <code value="en"/>
        <display value="English"/>
       </coding>
      </valueCodeableConcept>
     </extension>
     <extension url="preferred">
      <valueBoolean value="true"/>
     </extension>
     <extension url="modeOfCommunication">
      <valueCodeableConcept>
       <coding>
        <system value="https://fhir.hl7.org.uk/STU3/CareConnect-LanguageAbilityMode-1"/>
        <code value="ESP"/>
        <display value="Expressed spoken"/>
       </coding>
      </valueCodeableConcept>
     </extension>
     <extension url="modeOfCommunication">
      <valueCodeableConcept>
       <coding>
        <system value="https://fhir.hl7.org.uk/STU3/CareConnect-LanguageAbilityMode-1"/>
        <code value="RWR"/>
        <display value="Received written"/>
       </coding>
      </valueCodeableConcept>
     </extension>
     <extension url="communicationProficiency">
      <valueCodeableConcept>
       <coding>
        <system value="https://fhir.hl7.org.uk/STU3/CareConnect-LanguageAbilityProficiency-1"/>
        <code value="E"/>
        <display value="Excellent"/>
       </coding>
      </valueCodeableConcept>
     </extension>
     <extension url="interpreterRequired">
      <valueBoolean value="false"/>
     </extension>
    </extension>
    <identifier>
     <extension url="https://fhir.hl7.org.uk/STU3/StructureDefinition/Extension-CareConnect-NHSNumberVerificationStatus-1">
      <valueCodeableConcept>
       <coding>
        <system value="https://fhir.hl7.org.uk/STU3/CareConnect-NHSNumberVerificationStatus-1"/>
        <code value="01"/>
        <display value="Number present and verified"/>
       </coding>
      </valueCodeableConcept>
     </extension>
     <system value="https://fhir.nhs.uk/Id/nhs-number"/>
     <value value="124356789"/>
    </identifier>
    <active value="true"/>
    <name>
     <use value="usual"/>
     <family value="Critchard"/>
     <given value="Agatha"/>
     <prefix value="Mrs"/>
    </name>
    <telecom>
     <system value="phone"/>
     <value value="077 1234 7777"/>
     <use value="mobile"/>
    </telecom>
    <telecom>
     <system value="email"/>
     <value value="frances@delatour.net"/>
     <use value="home"/>
    </telecom>
    <gender value="female"/>
    <birthDate value="1964-02-01"/>
    <address>
     <use value="home"/>
     <line value="30 Acacia Road"/>
     <postalCode value="BM9 6PL"/>
    </address>
   </Patient>
  </resource>
 </entry>
 <!--Practitioner-Example-1-->
 <entry>
  <fullUrl value="urn:uuid:8ece9986-9af0-4882-b0cf-23a96ea7b509"/>
  <resource>
   <Practitioner>
    <id value="8ece9986-9af0-4882-b0cf-23a96ea7b509"/>
    <meta>
     <profile value="https://fhir.hl7.org.uk/STU3/StructureDefinition/CareConnect-Practitioner-1"/>
    </meta>
    <name>
     <family value="Kavanagh"/>
     <given value="Patricia"/>
    </name>
   </Practitioner>
  </resource>
 </entry>
 <!--Practitioner-Example-2-->
 <entry>
  <fullUrl value="urn:uuid:5e414a77-d394-4248-a631-00e45ddb64a0"/>
  <resource>
   <Practitioner>
    <id value="5e414a77-d394-4248-a631-00e45ddb64a0"/>
    <meta>
     <profile value="https://fhir.hl7.org.uk/STU3/StructureDefinition/CareConnect-Practitioner-1"/>
    </meta>
    <identifier>
     <system value="https://fhir.nhs.uk/Id/sds-user-id"/>
     <value value="GP12345600"/>
    </identifier>
    <name>
     <family value="O`Reilly"/>
     <given value="C"/>
     <prefix value="Dr"/>
    </name>
    <telecom>
     <system value="phone"/>
     <value value="01234 562987"/>
     <use value="work"/>
    </telecom>
   </Practitioner>
  </resource>
 </entry>
 <!--Practitioner-Example-3-->
 <entry>
  <fullUrl value="urn:uuid:d25fd1c6-2658-4db7-9af0-86c5f95e8ec9"/>
  <resource>
   <Practitioner>
    <id value="d25fd1c6-2658-4db7-9af0-86c5f95e8ec9"/>
    <meta>
     <profile value="https://fhir.hl7.org.uk/StructureDefinition/CareConnect-Practitioner-1"/>
    </meta>
    <name>
     <family value="O`casey"/>
     <given value="Shauna"/>
     <prefix value="Dr"/>
    </name>
    <address>
     <line value="St Crispin’s Hospital"/>
     <line value="General Plastic Surgery Clinic"/>
     <city value="Donaldstown"/>
     <postalCode value="DO5 7TP"/>
    </address>
   </Practitioner>
  </resource>
 </entry>
 <!--Organization-Example-1-->
 <entry>
  <fullUrl value="urn:uuid:f9f24f89-646b-4a19-a6b1-cabfa3b612e1"/>
  <resource>
   <Organization>
    <id value="f9f24f89-646b-4a19-a6b1-cabfa3b612e1"/>
    <meta>
     <profile value="https://fhir.hl7.org.uk/STU3/StructureDefinition/CareConnect-Organization-1"/>
    </meta>
    <identifier>
     <system value="https://fhir.nhs.uk/Id/ods-organization-code"/>
     <value value="A111111"/>
    </identifier>
    <type>
     <coding>
      <system value="http://hl7.org/fhir/organization-type"/>
      <code value="prov"/>
      <display value="Healthcare Provider"/>
     </coding>
    </type>
    <name value="Canvas Health Centre"/>
    <telecom>
     <system value="phone"/>
     <value value="01234 956412"/>
     <use value="work"/>
    </telecom>
    <telecom>
     <system value="email"/>
     <value value="Admin@MMC.co.uk"/>
    </telecom>
    <address>
     <use value="work"/>
     <line value="27 Acacia Road"/>
     <postalCode value="BM9 6PM "/>
    </address>
   </Organization>
  </resource>
 </entry>
 <!--Organization-Example-2-->
 <entry>
  <fullUrl value="urn:uuid:12bba528-a08a-448b-946b-7e8008044025"/>
  <resource>
   <Organization>
    <id value="12bba528-a08a-448b-946b-7e8008044025"/>
    <meta>
     <profile value="https://fhir.hl7.org.uk/STU3/StructureDefinition/CareConnect-Organization-1"/>
    </meta>
    <identifier>
     <system value="https://fhir.nhs.uk/Id/ods-organization-code"/>
     <value value="RX0000"/>
    </identifier>
    <type>
     <coding>
      <system value="http://hl7.org/fhir/organization-type"/>
      <code value="prov"/>
      <display value="Healthcare Provider"/>
     </coding>
    </type>
    <name value="St Crispin’s Hospital"/>
    <telecom>
     <system value="phone"/>
     <value value="01234 567890"/>
     <use value="work"/>
    </telecom>
    <address>
     <line value="St Crispin’s Hospital"/>
     <line value="Donaldstown"/>
     <postalCode value="DO5 7TP"/>
    </address>
   </Organization>
  </resource>
 </entry>
 <!--Location-Example-1-->
 <entry>
  <fullUrl value="urn:uuid:01bb1ccc-577b-4a4a-9fb0-9c8fe9f21fa3"/>
  <resource>
   <Location>
    <id value="01bb1ccc-577b-4a4a-9fb0-9c8fe9f21fa3"/>
    <meta>
     <profile value="https://fhir.hl7.org.uk/STU3/StructureDefinition/CareConnect-Location-1"/>
    </meta>
    <name value="St Crispin’s Hospital"/>
    <type>
     <coding>
      <system value="http://hl7.org/fhir/v3/RoleCode"/>
      <code value="HOSP"/>
      <display value="Hospital"/>
     </coding>
    </type>
   </Location>
  </resource>
 </entry>
</Bundle>
