<!-- ReadConsentResponseBody-example.xml -->
<Bundle xmlns="http://hl7.org/fhir">
  <id value="2dce9ecf-75c6-4ad5-a770-4f035419c229"/> 
  <meta> 
    <lastUpdated value="2018-05-25T00:00:00Z"/> 
  </meta> 
  <type value="searchset"/>
  <total value="1"/>
  <!--    all search sets include the self link - the statement of the query string searched on. -->
  <link>
    <relation value="self"/>
    <!-- note entity encoding in url -->
    <url value="https://clinicals.spineservices.nhs.uk/STU3/flagserver/Consent?patient=999999998&amp;status=active&amp;category=RAFlag"/>
  </link>
  <!-- search pagination is also represented as a link set here if required -->
  <!--    now, each entry is an action to take in the transaction    -->
  <entry>
    <fullUrl value="https://clinicals.spineservices.nhs.uk/STU3/flagserver/Consent/f1dc0ac6-45ff-4d2b-bf91-793971e3e286"/>
    <resource>
        <!-- found payload resource or operationOutcome in here -->
        <Consent xmlns="http://hl7.org/fhir">
            <id value="f1dc0ac6-45ff-4d2b-bf91-793971e3e286"/>
            <meta>
                <profile value="https://fhir.nhs.uk/STU3/StructureDefinition/RARecord-Consent-1"/>
            </meta>
            <contained>
                <Provenance xmlns="http://hl7.org/fhir">
                    <id value="e0531fd1-212d-4a97-a7a9-d17cec9a6af2"/>
                    <meta>
                        <profile value="https://fhir.nhs.uk/STU3/StructureDefinition/RARecord-Provenance-1"/>
                    </meta>
                    <target>
                        <reference value="f1dc0ac6-45ff-4d2b-bf91-793971e3e286"/>
                    </target>
                    <recorded value="2016-03-01T10:05:33+00:00"/>
                    <agent>
                        <role>
                            <coding>
                                <system value="https://fhir.nhs.uk/STU3/CodeSystem/CareConnect-SDSJobRoleName-1"/>
                                <code value="R0260"/>
                                <display value="General Medical Practitioner"/>
                            </coding>
                        </role>
                        <whoReference>
                            <reference value="https://sds.spineservices.nhs.uk/STU3/Organization/[OrgCode]"/>
                            <display value="Dr.D"/>
                        </whoReference>
                        <onBehalfOfReference>
                            <reference value="https://directory.spineservices.nhs.uk/STU3/Organization/[OrgCode]"/>
                            <display value="Some GP Clinic"/>
                        </onBehalfOfReference>
                    </agent>
                </Provenance>
            </contained>
            <extension url="https://fhir.nhs.uk/STU3/StructureDefinition/Extension-RARecord-ProxyRole-1">
                <valueCodeableConcept>
                    <coding>
                        <system value="https://fhir.nhs.uk/STU3/CodeSystem/CodeSystem-RARecord-ProxyRole-1"/>
                        <code value="lpa"/>
                        <display value="Lasting power of attorney personal welfare"/>
                    </coding>
                </valueCodeableConcept>
            </extension>
            <extension url="https://fhir.nhs.uk/STU3/StructureDefinition/Extension-RARecord-Provenance-1">
                <extension url="created">
                    <valueReference>
                        <reference value="#e0531fd1-212d-4a97-a7a9-d17cec9a6af2"/>
                    </valueReference>
                </extension>
            </extension>
            <status value="active"/>
            <category>
                <coding>
                    <system value="https://fhir.nhs.uk/STU3/CodeSystem/CodeSystem-RARecord-FlagCategory-1"/>
                    <code value="reasonable adjustments flag"/>
                    <display value="Reasonable Adjustments Flag"/>
                </coding>
            </category>
            <patient>
                <identifier>
                    <system value="https://fhir.nhs.uk/Id/nhs-number"/>
                    <value value="999999998"/>
                </identifier>
            </patient>
            <!-- these are directly lifted from National Data Opt Out. Will need either a general set or specific values for Reasonable Adjustments -->
            <policy>
                <authority value="https://www.gov.uk/"/>
                <uri value="https://www.gov.uk/government/uploads/system/uploads/attachment_data/file/535024/data-security-review.pdf"/>
            </policy>
            <purpose>
                <system value="https://snomed.info/sct"/>
                <code value="370856009"/>
                <display value="Limiting access to confidential patient information"/>
            </purpose>
        </Consent>
    </resource>
    <search>
      <mode value="match"/>
    </search>
  </entry>
</Bundle>