<!-- UpdateFlagResponseBody-example.xml -->
<Flag xmlns="http://hl7.org/fhir">
    <id value="744eec7d-8951-4722-ad74-dc34e86d4e1a"/>
    <meta>
        <profile value="https://fhir.nhs.uk/STU3/StructureDefinition/RARecord-Flag-1"/>
    </meta>
    <contained>
        <Provenance xmlns="http://hl7.org/fhir">
            <id value="2c625745-c551-419d-beaf-96ba5c4a3790"/>
            <meta>
                <profile value="https://fhir.nhs.uk/STU3/StructureDefinition/RARecord-Provenance-1"/>
            </meta>
            <target>
                <reference value="f1dc0ac6-45ff-4d2b-bf91-793971e3e286"/>
            </target>
            <recorded value="2016-03-01T10:05:33+00:00"/>
            <agent>
                <role>
                    <coding>
                        <system value="https://fhir.nhs.uk/STU3/CodeSystem/CareConnect-SDSJobRoleName-1"/>
                        <code value="R0260"/>
                        <display value="General Medical Practitioner"/>
                    </coding>
                </role>
                <whoReference>
                    <reference value="https://sds.spineservices.nhs.uk/STU3/Organization/[OrgCode]"/>
                    <display value="Dr.D"/>
                </whoReference>
                <onBehalfOfReference>
                    <reference value="https://directory.spineservices.nhs.uk/STU3/Organization/[OrgCode]"/>
                    <display value="Some GP Clinic"/>
                </onBehalfOfReference>
            </agent>
        </Provenance>
        <Provenance xmlns="http://hl7.org/fhir">
            <id value="916be0f8-be88-4d12-b3a9-4077ed05292e"/>
            <meta>
                <profile value="https://fhir.nhs.uk/STU3/StructureDefinition/RARecord-Provenance-1"/>
            </meta>
            <target>
                <reference value="f1dc0ac6-45ff-4d2b-bf91-793971e3e286"/>
            </target>
            <recorded value="2016-03-01T10:05:33+00:00"/>
            <agent>
                <role>
                    <coding>
                        <system value="https://fhir.nhs.uk/STU3/CodeSystem/CareConnect-SDSJobRoleName-1"/>
                        <code value="R0260"/>
                        <display value="General Medical Practitioner"/>
                    </coding>
                </role>
                <whoReference>
                    <reference value="https://sds.spineservices.nhs.uk/STU3/Organization/[OrgCode]"/>
                    <display value="Dr.D"/>
                </whoReference>
                <onBehalfOfReference>
                    <reference value="https://directory.spineservices.nhs.uk/STU3/Organization/[OrgCode]"/>
                    <display value="Some GP Clinic"/>
                </onBehalfOfReference>
            </agent>
        </Provenance>
    </contained>
    <extension url="https://fhir.nhs.uk/STU3/StructureDefinition/Extension-RARecord-Provenance-1">
        <extension url="created">
            <valueReference>
                <reference value="#2c625745-c551-419d-beaf-96ba5c4a3790"/>
            </valueReference>
        </extension>
        <extension url="updated">
            <valueReference>
                <reference value="#916be0f8-be88-4d12-b3a9-4077ed05292e"/>
            </valueReference>
        </extension>
    </extension>
    <extension url="https://fhir.nhs.uk/STU3/StructureDefinition/Extension-RARecord-RemovalReason-1">
        <valueCodeableConcept>
            <coding>
                <system value="https://fhir.nhs.uk/STU3/CodeSystem/CodeSystem-RARecord-RemovalReason-1"/>
                <code value="Error"/>
                <display value="The Reasonable Adjustment Flag was created in error"/>
            </coding>
        </valueCodeableConcept>
    </extension>
    <extension url="https://fhir.nhs.uk/STU3/StructureDefinition/Extension-RARecord-AdjustmentCategory-1">
        <valueCodeableConcept>
            <coding>
                <system value="https://fhir.nhs.uk/STU3/CodeSystem/CodeSystem-RARecord-AdjustmentCategories-1"/>
                <code value="comms"/>
                <display value="Communication"/>
            </coding>
        </valueCodeableConcept>
    </extension>
    <status value="inactive"/>
    <category>
        <coding>
            <system value="https://fhir.nhs.uk/STU3/CodeSystem/CodeSystem-RARecord-FlagCategory-1"/>
            <code value="reasonable adjustments flag"/>
            <display value="Reasonable Adjustments Flag"/>
        </coding>
    </category>
    <code>
        <coding>
            <system value="https://fhir.nhs.uk/STU3/CodeSystem/CodeSystem-RARecord-AccessibleInformationAdjustments-1"/>
            <code value="requiresinformationineasyread"/>
            <display value="Requires information in Easyread"/>
        </coding>
    </code>
    <subject>
        <identifier>
            <system value="https://fhir.nhs.uk/Id/nhs-number"/>
            <value value="999999998"/>
        </identifier>
    </subject>
</Flag>